signal_type,compression_level,prime_file,correct_word,babbling_file,mask1_file,mask2_file,practice.thisRepN,practice.thisTrialN,practice.thisN,practice.thisIndex,main.thisRepN,main.thisTrialN,main.thisN,main.thisIndex,thisRow.t,notes,response_key,rt,trial_outcome,babble_duration,Participant ID,Session,date,
present,0.1,røver_compressed.wav,røver,babble_72.wav,smerte_reversed.wav,kujon_reversed.wav,0,0,0,0,0,-1,-1,0,,,z,11.636342250014422,Miss,1.0262194919113594,88776655,001,2025-11-21_10-26-58,
absent,0.4,SILENCE,NA,babble_20.wav,konge_reversed.wav,bygning_reversed.wav,0,1,1,1,0,-1,-1,0,,,z,1.7589764169824775,Correct Rejection,0.9753503475399138,88776655,001,2025-11-21_10-26-58,
absent,0.5,SILENCE,NA,babble_77.wav,illoyal_reversed.wav,oprørt_reversed.wav,0,2,2,2,0,-1,-1,0,,,z,1.0733609170129057,Correct Rejection,1.3853291227194884,88776655,001,2025-11-21_10-26-58,
present,0.5,latter_compressed.wav,latter,babble_78.wav,kage_reversed.wav,rotte_reversed.wav,0,3,3,3,0,-1,-1,0,,,z,8.832754916977137,Miss,0.8330276252265288,88776655,001,2025-11-21_10-26-58,
present,0.6,ørken_compressed.wav,ørken,babble_88.wav,skyldig_reversed.wav,museum_reversed.wav,0,4,4,4,0,-1,-1,0,,,m,2.9721955840068404,Hit,1.0074541043871632,88776655,001,2025-11-21_10-26-58,
absent,0.3,SILENCE,NA,babble_57.wav,statue_reversed.wav,dollar_reversed.wav,0,5,5,5,0,-1,-1,0,,,z,2.6807156249997206,Correct Rejection,0.9457380237326893,88776655,001,2025-11-21_10-26-58,
absent,0.2,SILENCE,NA,babble_17.wav,kæle_reversed.wav,tortur_reversed.wav,0,6,6,6,0,-1,-1,0,,,m,2.657844291010406,False Alarm,1.1887355718449841,88776655,001,2025-11-21_10-26-58,
present,0.7,salat_compressed.wav,salat,babble_39.wav,cirkel_reversed.wav,engel_reversed.wav,0,7,7,7,0,-1,-1,0,,,m,1.679019207978854,Hit,1.1343638241130283,88776655,001,2025-11-21_10-26-58,
present,0.4,intim_compressed.wav,intim,babble_65.wav,rådden_reversed.wav,ledning_reversed.wav,0,8,8,8,0,-1,-1,0,,,z,1.2226550419873092,Miss,1.1725430722215333,88776655,001,2025-11-21_10-26-58,
absent,0.1,SILENCE,NA,babble_15.wav,vinde_reversed.wav,borddug_reversed.wav,0,9,9,9,0,-1,-1,0,,,z,1.6652993749885354,Correct Rejection,1.4676833759975896,88776655,001,2025-11-21_10-26-58,
present,0.3,lærer_compressed.wav,lærer,babble_30.wav,papir_reversed.wav,traume_reversed.wav,0,10,10,10,0,-1,-1,0,,,z,9.063998375000665,Miss,0.5806292008528396,88776655,001,2025-11-21_10-26-58,
absent,0.6,SILENCE,NA,babble_81.wav,magisk_reversed.wav,festlig_reversed.wav,0,11,11,11,0,-1,-1,0,,,z,4.783020500006387,Correct Rejection,1.133458914290574,88776655,001,2025-11-21_10-26-58,
present,0.2,spise_compressed.wav,spise,babble_35.wav,gidsel_reversed.wav,pjece_reversed.wav,0,12,12,12,0,-1,-1,0,,,z,1.6595428340078797,Miss,1.3363043238750323,88776655,001,2025-11-21_10-26-58,
absent,0.7,SILENCE,NA,babble_42.wav,misbrug_reversed.wav,dollar_reversed.wav,0,13,13,13,0,-1,-1,0,,,z,1.1797124999866355,Correct Rejection,0.8820801454911983,88776655,001,2025-11-21_10-26-58,
absent,0.3,SILENCE,NA,babble_72.wav,pervers_reversed.wav,himmel_reversed.wav,,,,,0,0,0,0,,,z,1.6457779579795897,Correct Rejection,1.0444418683398213,88776655,001,2025-11-21_10-26-58,
present,0.2,passion_compressed.wav,passion,babble_47.wav,trussel_reversed.wav,varme_reversed.wav,,,,,0,1,1,1,,,m,0.8772441250039265,Hit,0.9617106853857939,88776655,001,2025-11-21_10-26-58,
absent,0.5,SILENCE,NA,babble_60.wav,illoyal_reversed.wav,plakat_reversed.wav,,,,,0,2,2,2,,,z,1.4999352500017267,Correct Rejection,1.4816201023396114,88776655,001,2025-11-21_10-26-58,
present,0.4,kedel_compressed.wav,kedel,babble_88.wav,rigdom_reversed.wav,viden_reversed.wav,,,,,0,3,3,3,,,m,0.6446328750171233,Hit,1.2699315851202866,88776655,001,2025-11-21_10-26-58,
present,0.3,bifald_compressed.wav,bifald,babble_41.wav,kærtegn_reversed.wav,statue_reversed.wav,,,,,0,4,4,4,,,m,0.6261059579846915,Hit,1.4938038265591844,88776655,001,2025-11-21_10-26-58,
present,0.4,metal_compressed.wav,metal,babble_0.wav,drukne_reversed.wav,brutal_reversed.wav,,,,,0,5,5,5,,,z,0.35190737500670366,Miss,1.337219053030021,88776655,001,2025-11-21_10-26-58,
present,0.2,gratis_compressed.wav,gratis,babble_33.wav,gade_reversed.wav,pjece_reversed.wav,,,,,0,6,6,6,,,z,0.6922870829876047,Miss,1.3871763054703976,88776655,001,2025-11-21_10-26-58,
present,0.2,albue_compressed.wav,albue,babble_79.wav,kæle_reversed.wav,sindssyg_reversed.wav,,,,,0,7,7,7,,,m,0.49078862500027753,Hit,0.7189363602720553,88776655,001,2025-11-21_10-26-58,
absent,0.7,SILENCE,NA,babble_35.wav,spise_reversed.wav,enhed_reversed.wav,,,,,0,8,8,8,,,z,0.7344614170142449,Correct Rejection,1.1841400398188546,88776655,001,2025-11-21_10-26-58,
present,0.7,jubel_compressed.wav,jubel,babble_41.wav,cirkel_reversed.wav,avis_reversed.wav,,,,,0,9,9,9,,,z,1.1287626670091413,Miss,1.339059905974734,88776655,001,2025-11-21_10-26-58,
present,0.5,heldig_compressed.wav,heldig,babble_69.wav,sæde_reversed.wav,latter_reversed.wav,,,,,0,10,10,10,,,z,1.2135933750250842,Miss,0.5238177941628698,88776655,001,2025-11-21_10-26-58,
absent,0.3,SILENCE,NA,babble_32.wav,ketchup_reversed.wav,kiste_reversed.wav,,,,,0,11,11,11,,,z,3.512153291987488,Correct Rejection,1.0598341727698997,88776655,001,2025-11-21_10-26-58,
absent,0.1,SILENCE,NA,babble_45.wav,sejre_reversed.wav,hjerte_reversed.wav,,,,,0,12,12,12,,,z,0.7474587909819093,Correct Rejection,0.5824433679239278,88776655,001,2025-11-21_10-26-58,
absent,0.5,SILENCE,NA,babble_87.wav,mave_reversed.wav,sindssyg_reversed.wav,,,,,0,13,13,13,,,z,0.6528975419932976,Correct Rejection,1.2287666553417655,88776655,001,2025-11-21_10-26-58,
present,0.2,tilfreds_compressed.wav,tilfreds,babble_48.wav,smerte_reversed.wav,pjece_reversed.wav,,,,,0,14,14,14,,,z,0.9754047080059536,Miss,0.7279535605952362,88776655,001,2025-11-21_10-26-58,
absent,0.5,SILENCE,NA,babble_53.wav,redning_reversed.wav,nøgle_reversed.wav,,,,,0,15,15,15,,,z,1.6793674590007868,Correct Rejection,1.2957425355652226,88776655,001,2025-11-21_10-26-58,
present,0.6,passion_compressed.wav,passion,babble_74.wav,gidsel_reversed.wav,gidsel_reversed.wav,,,,,0,16,16,16,,,z,0.841534999985015,Miss,0.5317079878315066,88776655,001,2025-11-21_10-26-58,
absent,0.4,SILENCE,NA,babble_25.wav,gratis_reversed.wav,skyldig_reversed.wav,,,,,0,17,17,17,,,z,1.7036818749911617,Correct Rejection,0.5740901438973284,88776655,001,2025-11-21_10-26-58,
present,0.3,konge_compressed.wav,konge,babble_9.wav,sæde_reversed.wav,konge_reversed.wav,,,,,0,18,18,18,,,z,1.6112457500130404,Miss,0.5674092393450755,88776655,001,2025-11-21_10-26-58,
present,0.4,bygning_compressed.wav,bygning,babble_2.wav,misbrug_reversed.wav,heldig_reversed.wav,,,,,0,19,19,19,,,z,0.5753998339932878,Miss,1.267084298330031,88776655,001,2025-11-21_10-26-58,
present,0.5,rabies_compressed.wav,rabies,babble_33.wav,pude_reversed.wav,skyldig_reversed.wav,,,,,0,20,20,20,,,z,2.8924316669872496,Miss,0.6517278644441213,88776655,001,2025-11-21_10-26-58,
absent,0.6,SILENCE,NA,babble_46.wav,spænding_reversed.wav,giftig_reversed.wav,,,,,0,21,21,21,,,z,0.6005989170225803,Correct Rejection,0.7130831137503204,88776655,001,2025-11-21_10-26-58,
absent,0.6,SILENCE,NA,babble_72.wav,nonsens_reversed.wav,finger_reversed.wav,,,,,0,22,22,22,,,z,0.7124861250049435,Correct Rejection,0.7612268009829073,88776655,001,2025-11-21_10-26-58,
absent,0.4,SILENCE,NA,babble_18.wav,leder_reversed.wav,søsyg_reversed.wav,,,,,0,23,23,23,,,z,0.7933499169885181,Correct Rejection,1.2611900652635257,88776655,001,2025-11-21_10-26-58,
present,0.1,hånlig_compressed.wav,hånlig,babble_80.wav,mester_reversed.wav,bombe_reversed.wav,,,,,0,24,24,24,,,z,1.9142657079792116,Miss,1.0610679665277234,88776655,001,2025-11-21_10-26-58,
present,0.1,gratis_compressed.wav,gratis,babble_27.wav,genstand_reversed.wav,skade_reversed.wav,,,,,0,25,25,25,,,z,0.8459141249768436,Miss,0.7407981718483092,88776655,001,2025-11-21_10-26-58,
present,0.5,magisk_compressed.wav,magisk,babble_25.wav,diamant_reversed.wav,vinde_reversed.wav,,,,,0,26,26,26,,,z,7.613542749983026,Miss,1.1136124200263782,88776655,001,2025-11-21_10-26-58,
absent,0.5,SILENCE,NA,babble_6.wav,konkurs_reversed.wav,måned_reversed.wav,,,,,0,27,27,27,,,z,0.9336807919899002,Correct Rejection,1.4305394840206045,88776655,001,2025-11-21_10-26-58,
present,0.3,smerte_compressed.wav,smerte,babble_48.wav,ørken_reversed.wav,ensom_reversed.wav,,,,,0,28,28,28,,,m,2.5063743329956196,Hit,1.3870182914376623,88776655,001,2025-11-21_10-26-58,
present,0.3,ankel_compressed.wav,ankel,babble_70.wav,ensom_reversed.wav,marked_reversed.wav,,,,,0,29,29,29,,,z,1.113292875001207,Miss,1.0061534513874495,88776655,001,2025-11-21_10-26-58,
absent,0.6,SILENCE,NA,babble_53.wav,oprørt_reversed.wav,plakat_reversed.wav,,,,,0,30,30,30,,,z,0.9119982910051476,Correct Rejection,1.1373837248840593,88776655,001,2025-11-21_10-26-58,
present,0.2,ørken_compressed.wav,ørken,babble_46.wav,blomstre_reversed.wav,slave_reversed.wav,,,,,0,31,31,31,,,z,0.9079848749970552,Miss,1.358528081179121,88776655,001,2025-11-21_10-26-58,
present,0.4,skyldig_compressed.wav,skyldig,babble_15.wav,hjerte_reversed.wav,djævel_reversed.wav,,,,,0,32,32,32,,,m,0.5632326250197366,Hit,0.7173259132908123,88776655,001,2025-11-21_10-26-58,
absent,0.4,SILENCE,NA,babble_39.wav,trussel_reversed.wav,borddug_reversed.wav,,,,,0,33,33,33,,,z,0.4034869580063969,Correct Rejection,0.7106155983627556,88776655,001,2025-11-21_10-26-58,
present,0.4,luder_compressed.wav,luder,babble_50.wav,spænding_reversed.wav,skammel_reversed.wav,,,,,0,34,34,34,,,m,0.5902374580036849,Hit,0.5283182882298175,88776655,001,2025-11-21_10-26-58,
present,0.3,taber_compressed.wav,taber,babble_89.wav,cirkel_reversed.wav,kujon_reversed.wav,,,,,0,35,35,35,,,m,0.5539007499755826,Hit,0.7130147862315229,88776655,001,2025-11-21_10-26-58,
absent,0.3,SILENCE,NA,babble_56.wav,ørken_reversed.wav,stjerne_reversed.wav,,,,,0,36,36,36,,,z,0.5783532499917783,Correct Rejection,1.1677751572005013,88776655,001,2025-11-21_10-26-58,
present,0.3,genstand_compressed.wav,genstand,babble_90.wav,himlen_reversed.wav,modgang_reversed.wav,,,,,0,37,37,37,,,m,0.9204771659860853,Hit,0.6531013745671976,88776655,001,2025-11-21_10-26-58,
absent,0.4,SILENCE,NA,babble_61.wav,taxa_reversed.wav,offer_reversed.wav,,,,,0,38,38,38,,,z,0.5601544580131304,Correct Rejection,1.0904875172735062,88776655,001,2025-11-21_10-26-58,
absent,0.2,SILENCE,NA,babble_55.wav,redskab_reversed.wav,tumor_reversed.wav,,,,,0,39,39,39,,,z,0.6335459999972954,Correct Rejection,1.408512398975181,88776655,001,2025-11-21_10-26-58,
present,0.5,tortur_compressed.wav,tortur,babble_15.wav,blodig_reversed.wav,vandal_reversed.wav,,,,,0,40,40,40,,,z,6.920996500004549,Miss,1.1713513876656156,88776655,001,2025-11-21_10-26-58,
absent,0.4,SILENCE,NA,babble_89.wav,papir_reversed.wav,vinde_reversed.wav,,,,,0,41,41,41,,,z,0.5761576250079088,Correct Rejection,0.6849117658805458,88776655,001,2025-11-21_10-26-58,
present,0.5,oprør_compressed.wav,oprør,babble_18.wav,måned_reversed.wav,vandal_reversed.wav,,,,,0,42,42,42,,,z,1.0152876659994945,Miss,1.1703747205189026,88776655,001,2025-11-21_10-26-58,
absent,0.6,SILENCE,NA,babble_55.wav,affald_reversed.wav,fjollet_reversed.wav,,,,,0,43,43,43,,,z,0.4924182500108145,Correct Rejection,1.4878218056779817,88776655,001,2025-11-21_10-26-58,
absent,0.6,SILENCE,NA,babble_70.wav,tortur_reversed.wav,lyse_reversed.wav,,,,,0,44,44,44,,,z,1.0269672500144225,Correct Rejection,1.2062748473583114,88776655,001,2025-11-21_10-26-58,
present,0.6,fjollet_compressed.wav,fjollet,babble_30.wav,brænde_reversed.wav,succes_reversed.wav,,,,,0,45,45,45,,,z,1.1614249170233961,Miss,1.153875727308313,88776655,001,2025-11-21_10-26-58,
absent,0.5,SILENCE,NA,babble_34.wav,passion_reversed.wav,rotte_reversed.wav,,,,,0,46,46,46,,,z,2.1486490829847753,Correct Rejection,0.5845196249683834,88776655,001,2025-11-21_10-26-58,
absent,0.1,SILENCE,NA,babble_8.wav,hånlig_reversed.wav,luksus_reversed.wav,,,,,0,47,47,47,,,z,1.5614867499971297,Correct Rejection,0.6191389431697543,88776655,001,2025-11-21_10-26-58,
absent,0.3,SILENCE,NA,babble_59.wav,lærer_reversed.wav,genstand_reversed.wav,,,,,0,48,48,48,,,z,0.6604070830217097,Correct Rejection,0.7479496183619325,88776655,001,2025-11-21_10-26-58,
present,0.4,kærtegn_compressed.wav,kærtegn,babble_54.wav,giftig_reversed.wav,bange_reversed.wav,,,,,0,49,49,49,,,z,0.898243542003911,Miss,1.4999638428589956,88776655,001,2025-11-21_10-26-58,
absent,0.6,SILENCE,NA,babble_31.wav,gade_reversed.wav,spise_reversed.wav,,,,,0,50,50,50,,,z,0.8907507920230273,Correct Rejection,0.8790685777878501,88776655,001,2025-11-21_10-26-58,
absent,0.2,SILENCE,NA,babble_8.wav,kiste_reversed.wav,opstemt_reversed.wav,,,,,0,51,51,51,,,z,0.5375361670157872,Correct Rejection,0.679258540913027,88776655,001,2025-11-21_10-26-58,
present,0.6,gaffel_compressed.wav,gaffel,babble_30.wav,sandhed_reversed.wav,ketchup_reversed.wav,,,,,0,52,52,52,,,z,0.6515767920063809,Miss,0.5338439627332866,88776655,001,2025-11-21_10-26-58,
present,0.7,latter_compressed.wav,latter,babble_87.wav,varme_reversed.wav,baby_reversed.wav,,,,,0,53,53,53,,,z,0.9512709169939626,Miss,0.9807819379204114,88776655,001,2025-11-21_10-26-58,
absent,0.5,SILENCE,NA,babble_66.wav,fedme_reversed.wav,genert_reversed.wav,,,,,0,54,54,54,,,z,0.7033433750038967,Correct Rejection,0.7610537955885492,88776655,001,2025-11-21_10-26-58,
absent,0.1,SILENCE,NA,babble_11.wav,talent_reversed.wav,pervers_reversed.wav,,,,,0,55,55,55,,,z,1.341927500005113,Correct Rejection,0.740209362712502,88776655,001,2025-11-21_10-26-58,
present,0.5,grusom_compressed.wav,grusom,babble_17.wav,gratis_reversed.wav,tortur_reversed.wav,,,,,0,56,56,56,,,z,2.389017541980138,Miss,1.18977791253177,88776655,001,2025-11-21_10-26-58,
absent,0.7,SILENCE,NA,babble_16.wav,borddug_reversed.wav,kontor_reversed.wav,,,,,0,57,57,57,,,z,1.632386334007606,Correct Rejection,1.181126390017702,88776655,001,2025-11-21_10-26-58,
absent,0.1,SILENCE,NA,babble_44.wav,fiasko_reversed.wav,lyse_reversed.wav,,,,,0,58,58,58,,,z,1.7291102499875706,Correct Rejection,0.8268042434278273,88776655,001,2025-11-21_10-26-58,
absent,0.4,SILENCE,NA,babble_74.wav,fase_reversed.wav,kærtegn_reversed.wav,,,,,0,59,59,59,,,z,1.8540551249752752,Correct Rejection,0.8549947465291181,88776655,001,2025-11-21_10-26-58,
absent,0.7,SILENCE,NA,babble_45.wav,avis_reversed.wav,kugle_reversed.wav,,,,,0,60,60,60,,,z,0.8105128750030417,Correct Rejection,1.240865608635115,88776655,001,2025-11-21_10-26-58,
absent,0.7,SILENCE,NA,babble_73.wav,gave_reversed.wav,brænde_reversed.wav,,,,,0,61,61,61,,,z,0.8033673749887384,Correct Rejection,0.656403064803969,88776655,001,2025-11-21_10-26-58,
present,0.4,mave_compressed.wav,mave,babble_48.wav,kærtegn_reversed.wav,slagtning_reversed.wav,,,,,0,62,62,62,,,z,0.5775030420045368,Miss,1.2764838950922062,88776655,001,2025-11-21_10-26-58,
present,0.2,hage_compressed.wav,hage,babble_78.wav,avis_reversed.wav,drukne_reversed.wav,,,,,0,63,63,63,,,z,0.9120006249868311,Miss,1.4541123090541586,88776655,001,2025-11-21_10-26-58,
absent,0.6,SILENCE,NA,babble_16.wav,dollar_reversed.wav,trussel_reversed.wav,,,,,0,64,64,64,,,z,0.5726157500175759,Correct Rejection,1.4429611489940188,88776655,001,2025-11-21_10-26-58,
present,0.5,kysse_compressed.wav,kysse,babble_33.wav,trofæ_reversed.wav,vandal_reversed.wav,,,,,0,65,65,65,,,z,0.6700487920024898,Miss,0.501691857752614,88776655,001,2025-11-21_10-26-58,
absent,0.4,SILENCE,NA,babble_73.wav,oprør_reversed.wav,himmel_reversed.wav,,,,,0,66,66,66,,,z,1.5360378749901429,Correct Rejection,0.6542514298402452,88776655,001,2025-11-21_10-26-58,
absent,0.5,SILENCE,NA,babble_13.wav,rabies_reversed.wav,misbrug_reversed.wav,,,,,0,67,67,67,,,z,1.238433584017912,Correct Rejection,1.1422481349761107,88776655,001,2025-11-21_10-26-58,
absent,0.2,SILENCE,NA,babble_91.wav,jubel_reversed.wav,spænding_reversed.wav,,,,,0,68,68,68,,,z,1.5541290410037618,Correct Rejection,0.7615823302833482,88776655,001,2025-11-21_10-26-58,
present,0.5,sæde_compressed.wav,sæde,babble_72.wav,trussel_reversed.wav,lyse_reversed.wav,,,,,0,69,69,69,,,z,1.4013867090106942,Miss,0.5624121564885423,88776655,001,2025-11-21_10-26-58,
present,0.2,heldig_compressed.wav,heldig,babble_40.wav,rabies_reversed.wav,brænde_reversed.wav,,,,,0,70,70,70,,,z,4.638918542012107,Miss,0.5316385053613178,88776655,001,2025-11-21_10-26-58,
absent,0.5,SILENCE,NA,babble_37.wav,latter_reversed.wav,stjerne_reversed.wav,,,,,0,71,71,71,,,z,1.4986280419980176,Correct Rejection,1.0935386194124446,88776655,001,2025-11-21_10-26-58,
absent,0.3,SILENCE,NA,babble_11.wav,kande_reversed.wav,vinde_reversed.wav,,,,,0,72,72,72,,,z,3.197210542013636,Correct Rejection,1.1924963626785157,88776655,001,2025-11-21_10-26-58,
absent,0.7,SILENCE,NA,babble_98.wav,ketchup_reversed.wav,diamant_reversed.wav,,,,,0,73,73,73,,,z,6.007223124994198,Correct Rejection,1.2377096196103654,88776655,001,2025-11-21_10-26-58,
present,0.6,gratis_compressed.wav,gratis,babble_68.wav,voldtægt_reversed.wav,oprør_reversed.wav,,,,,0,74,74,74,,,z,0.8807071250048466,Miss,1.3619549996676712,88776655,001,2025-11-21_10-26-58,
present,0.7,pude_compressed.wav,pude,babble_63.wav,heldig_reversed.wav,fedme_reversed.wav,,,,,0,75,75,75,,,z,0.6322685419872869,Miss,0.8855875863638438,88776655,001,2025-11-21_10-26-58,
present,0.5,konkurs_compressed.wav,konkurs,babble_33.wav,pjece_reversed.wav,pude_reversed.wav,,,,,0,76,76,76,,,z,0.4279763750091661,Miss,1.4624419914897047,88776655,001,2025-11-21_10-26-58,
present,0.7,traume_compressed.wav,traume,babble_9.wav,morder_reversed.wav,trofæ_reversed.wav,,,,,0,77,77,77,,,m,1.2863290420209523,Hit,1.1811901642562863,88776655,001,2025-11-21_10-26-58,
absent,0.7,SILENCE,NA,babble_8.wav,gratis_reversed.wav,traume_reversed.wav,,,,,0,78,78,78,,,z,0.645145666989265,Correct Rejection,1.4963119890584156,88776655,001,2025-11-21_10-26-58,
present,0.1,grusom_compressed.wav,grusom,babble_7.wav,respekt_reversed.wav,tortur_reversed.wav,,,,,0,79,79,79,,,m,0.9635765829880256,Hit,1.4850513902446711,88776655,001,2025-11-21_10-26-58,
absent,0.2,SILENCE,NA,babble_92.wav,vandal_reversed.wav,gade_reversed.wav,,,,,0,80,80,80,,,z,0.6641792500158772,Correct Rejection,1.182769576411168,88776655,001,2025-11-21_10-26-58,
present,0.5,kontor_compressed.wav,kontor,babble_47.wav,kærtegn_reversed.wav,redskab_reversed.wav,,,,,0,81,81,81,,,m,0.48387158298282884,Hit,0.7434776976086028,88776655,001,2025-11-21_10-26-58,
absent,0.5,SILENCE,NA,babble_7.wav,albue_reversed.wav,sejre_reversed.wav,,,,,0,82,82,82,,,z,0.6945120420132298,Correct Rejection,0.7682382218429303,88776655,001,2025-11-21_10-26-58,
present,0.7,humor_compressed.wav,humor,babble_88.wav,slave_reversed.wav,flirte_reversed.wav,,,,,0,83,83,83,,,m,0.40919841700815596,Hit,0.6831732597834467,88776655,001,2025-11-21_10-26-58,
present,0.6,poesi_compressed.wav,poesi,babble_54.wav,cirkel_reversed.wav,spænding_reversed.wav,,,,,0,84,84,84,,,z,0.7250855829915963,Miss,1.4497792012054835,88776655,001,2025-11-21_10-26-58,
absent,0.6,SILENCE,NA,babble_42.wav,ønske_reversed.wav,grusom_reversed.wav,,,,,0,85,85,85,,,z,0.8272635830217041,Correct Rejection,1.0345599216675385,88776655,001,2025-11-21_10-26-58,
present,0.3,nøgle_compressed.wav,nøgle,babble_12.wav,cirkel_reversed.wav,kæle_reversed.wav,,,,,0,86,86,86,,,z,0.40565254201646894,Miss,1.0565126483558218,88776655,001,2025-11-21_10-26-58,
present,0.4,voldtægt_compressed.wav,voldtægt,babble_99.wav,rådden_reversed.wav,himmel_reversed.wav,,,,,0,87,87,87,,,z,0.7042426249827258,Miss,0.8568283585538363,88776655,001,2025-11-21_10-26-58,
present,0.7,hårnål_compressed.wav,hårnål,babble_98.wav,knude_reversed.wav,succes_reversed.wav,,,,,0,88,88,88,,,z,0.6338633749983273,Miss,0.9766837571396032,88776655,001,2025-11-21_10-26-58,
absent,0.4,SILENCE,NA,babble_77.wav,blomstre_reversed.wav,fjendtlig_reversed.wav,,,,,0,89,89,89,,,z,0.7604323329869658,Correct Rejection,0.9291065131205879,88776655,001,2025-11-21_10-26-58,
present,0.2,spænding_compressed.wav,spænding,babble_40.wav,utro_reversed.wav,genert_reversed.wav,,,,,0,90,90,90,,,z,0.3575821250269655,Miss,0.5194451348249111,88776655,001,2025-11-21_10-26-58,
present,0.7,himmel_compressed.wav,himmel,babble_87.wav,passion_reversed.wav,regnbue_reversed.wav,,,,,0,91,91,91,,,z,0.6018672500213142,Miss,1.2600890752133602,88776655,001,2025-11-21_10-26-58,
absent,0.1,SILENCE,NA,babble_96.wav,grimme_reversed.wav,sejre_reversed.wav,,,,,0,92,92,92,,,z,0.411761833995115,Correct Rejection,0.847673121036573,88776655,001,2025-11-21_10-26-58,
present,0.3,skyldig_compressed.wav,skyldig,babble_59.wav,papir_reversed.wav,spise_reversed.wav,,,,,0,93,93,93,,,z,1.4176636660122313,Miss,0.7220599298845911,88776655,001,2025-11-21_10-26-58,
absent,0.1,SILENCE,NA,babble_39.wav,mester_reversed.wav,lærer_reversed.wav,,,,,0,94,94,94,,,m,1.2024826669949107,False Alarm,0.8520917827196782,88776655,001,2025-11-21_10-26-58,
present,0.6,skade_compressed.wav,skade,babble_54.wav,nonne_reversed.wav,trofæ_reversed.wav,,,,,0,95,95,95,,,z,1.4336862080090214,Miss,1.0482232764805341,88776655,001,2025-11-21_10-26-58,
absent,0.5,SILENCE,NA,babble_8.wav,engel_reversed.wav,misbrug_reversed.wav,,,,,0,96,96,96,,,z,1.357640292000724,Correct Rejection,0.5682305636011508,88776655,001,2025-11-21_10-26-58,
present,0.7,poesi_compressed.wav,poesi,babble_87.wav,succes_reversed.wav,genert_reversed.wav,,,,,0,97,97,97,,,z,0.7288946250046138,Miss,0.9303395062956631,88776655,001,2025-11-21_10-26-58,
present,0.1,knude_compressed.wav,knude,babble_25.wav,viden_reversed.wav,vandfald_reversed.wav,,,,,0,98,98,98,,,m,0.9108120830205735,Hit,1.2642718812315914,88776655,001,2025-11-21_10-26-58,
present,0.7,bryllup_compressed.wav,bryllup,babble_95.wav,kugle_reversed.wav,knude_reversed.wav,,,,,0,99,99,99,,,m,0.6746189999976195,Hit,1.0411110837573996,88776655,001,2025-11-21_10-26-58,
present,0.7,frelser_compressed.wav,frelser,babble_89.wav,gave_reversed.wav,skyldig_reversed.wav,,,,,0,100,100,100,,,z,1.7338696670194622,Miss,1.4602437095157788,88776655,001,2025-11-21_10-26-58,
absent,0.3,SILENCE,NA,babble_0.wav,oprør_reversed.wav,venlig_reversed.wav,,,,,0,101,101,101,,,z,0.8070712080225348,Correct Rejection,0.616077517397072,88776655,001,2025-11-21_10-26-58,
present,0.6,salat_compressed.wav,salat,babble_51.wav,forfald_reversed.wav,lyse_reversed.wav,,,,,0,102,102,102,,,z,1.157445041986648,Miss,1.0481976837327076,88776655,001,2025-11-21_10-26-58,
present,0.4,putte_compressed.wav,putte,babble_27.wav,nøgle_reversed.wav,museum_reversed.wav,,,,,0,103,103,103,,,z,0.7394208750047255,Miss,0.7728312964550728,88776655,001,2025-11-21_10-26-58,
present,0.5,grimme_compressed.wav,grimme,babble_54.wav,slagtning_reversed.wav,offer_reversed.wav,,,,,0,104,104,104,,,z,1.6251368749944959,Miss,1.1536685022042463,88776655,001,2025-11-21_10-26-58,
absent,0.4,SILENCE,NA,babble_47.wav,skuffe_reversed.wav,genstand_reversed.wav,,,,,0,105,105,105,,,z,0.5181469579983968,Correct Rejection,0.7553000704059764,88776655,001,2025-11-21_10-26-58,
present,0.1,latter_compressed.wav,latter,babble_15.wav,ankel_reversed.wav,utro_reversed.wav,,,,,0,106,106,106,,,z,1.548727916990174,Miss,0.986139754414135,88776655,001,2025-11-21_10-26-58,
present,0.4,kvæles_compressed.wav,kvæles,babble_62.wav,rædsel_reversed.wav,rotte_reversed.wav,,,,,0,107,107,107,,,z,2.3226098330051173,Miss,0.5146300106068115,88776655,001,2025-11-21_10-26-58,
absent,0.1,SILENCE,NA,babble_0.wav,brutal_reversed.wav,violin_reversed.wav,,,,,0,108,108,108,,,z,2.2284768749959767,Correct Rejection,1.406969123133173,88776655,001,2025-11-21_10-26-58,
absent,0.2,SILENCE,NA,babble_22.wav,bange_reversed.wav,knude_reversed.wav,,,,,0,109,109,109,,,z,4.272385165997548,Correct Rejection,1.065135570246981,88776655,001,2025-11-21_10-26-58,
present,0.3,illoyal_compressed.wav,illoyal,babble_85.wav,pjece_reversed.wav,skyldig_reversed.wav,,,,,0,110,110,110,,,z,0.7748957500152756,Miss,1.4281104358240762,88776655,001,2025-11-21_10-26-58,
absent,0.5,SILENCE,NA,babble_65.wav,selvmord_reversed.wav,glæde_reversed.wav,,,,,0,111,111,111,,,z,0.6358809579978697,Correct Rejection,1.103755301144775,88776655,001,2025-11-21_10-26-58,
absent,0.6,SILENCE,NA,babble_14.wav,violin_reversed.wav,krise_reversed.wav,,,,,0,112,112,112,,,z,0.5385441250109579,Correct Rejection,0.8008657736053028,88776655,001,2025-11-21_10-26-58,
absent,0.6,SILENCE,NA,babble_20.wav,cirkel_reversed.wav,bygning_reversed.wav,,,,,0,113,113,113,,,z,0.8208619170181919,Correct Rejection,1.3836745045376808,88776655,001,2025-11-21_10-26-58,
present,0.1,kujon_compressed.wav,kujon,babble_31.wav,djævel_reversed.wav,hader_reversed.wav,,,,,0,114,114,114,,,m,0.6740105840144679,Hit,1.2870833900720018,88776655,001,2025-11-21_10-26-58,
present,0.1,oprør_compressed.wav,oprør,babble_68.wav,offer_reversed.wav,skønhed_reversed.wav,,,,,0,115,115,115,,,z,0.725746167008765,Miss,1.4768965206053388,88776655,001,2025-11-21_10-26-58,
absent,0.5,SILENCE,NA,babble_78.wav,redning_reversed.wav,trofæ_reversed.wav,,,,,0,116,116,116,,,z,0.5512160419893917,Correct Rejection,1.489502576433036,88776655,001,2025-11-21_10-26-58,
absent,0.7,SILENCE,NA,babble_11.wav,drukne_reversed.wav,gaffel_reversed.wav,,,,,0,117,117,117,,,z,2.6423517079965677,Correct Rejection,1.0140884393737348,88776655,001,2025-11-21_10-26-58,
absent,0.6,SILENCE,NA,babble_29.wav,nøgle_reversed.wav,illoyal_reversed.wav,,,,,0,118,118,118,,,z,0.8608044589927886,Correct Rejection,1.2748768355777154,88776655,001,2025-11-21_10-26-58,
absent,0.5,SILENCE,NA,babble_59.wav,ketchup_reversed.wav,frygtsom_reversed.wav,,,,,0,119,119,119,,,z,0.7494685419951566,Correct Rejection,1.4362040387552442,88776655,001,2025-11-21_10-26-58,
absent,0.4,SILENCE,NA,babble_21.wav,oprør_reversed.wav,vandal_reversed.wav,,,,,0,120,120,120,,,z,0.6429469589784276,Correct Rejection,0.8919513830223981,88776655,001,2025-11-21_10-26-58,
absent,0.7,SILENCE,NA,babble_91.wav,papir_reversed.wav,kujon_reversed.wav,,,,,0,121,121,121,,,z,0.7376402500085533,Correct Rejection,1.4417675800405148,88776655,001,2025-11-21_10-26-58,
absent,0.2,SILENCE,NA,babble_4.wav,avis_reversed.wav,voldtægt_reversed.wav,,,,,0,122,122,122,,,z,0.8982127910130657,Correct Rejection,1.1551463571361922,88776655,001,2025-11-21_10-26-58,
absent,0.2,SILENCE,NA,babble_87.wav,succes_reversed.wav,måned_reversed.wav,,,,,0,123,123,123,,,z,1.755209458002355,Correct Rejection,0.8601712124860434,88776655,001,2025-11-21_10-26-58,
present,0.1,kage_compressed.wav,kage,babble_7.wav,kujon_reversed.wav,sollys_reversed.wav,,,,,0,124,124,124,,,z,0.6052416659949813,Miss,0.5414436669568289,88776655,001,2025-11-21_10-26-58,
absent,0.2,SILENCE,NA,babble_1.wav,humor_reversed.wav,gratis_reversed.wav,,,,,0,125,125,125,,,z,1.007880249992013,Correct Rejection,0.6136201765819798,88776655,001,2025-11-21_10-26-58,
absent,0.4,SILENCE,NA,babble_67.wav,fremskridt_reversed.wav,maling_reversed.wav,,,,,0,126,126,126,,,z,1.932513542007655,Correct Rejection,1.462572483009417,88776655,001,2025-11-21_10-26-58,
absent,0.2,SILENCE,NA,babble_21.wav,spænding_reversed.wav,lyse_reversed.wav,,,,,0,127,127,127,,,z,0.6618138749909122,Correct Rejection,1.1455529279967371,88776655,001,2025-11-21_10-26-58,
absent,0.1,SILENCE,NA,babble_61.wav,kugle_reversed.wav,sikker_reversed.wav,,,,,0,128,128,128,,,z,1.355122292006854,Correct Rejection,0.6025469091199201,88776655,001,2025-11-21_10-26-58,
present,0.3,bange_compressed.wav,bange,babble_56.wav,fase_reversed.wav,stjerne_reversed.wav,,,,,0,129,129,129,,,m,1.2744714579894207,Hit,1.4459839277452737,88776655,001,2025-11-21_10-26-58,
present,0.2,magisk_compressed.wav,magisk,babble_25.wav,tumor_reversed.wav,fængsel_reversed.wav,,,,,0,130,130,130,,,m,0.4191264160035644,Hit,1.441534792412639,88776655,001,2025-11-21_10-26-58,
absent,0.7,SILENCE,NA,babble_79.wav,oprør_reversed.wav,slagtning_reversed.wav,,,,,0,131,131,131,,,z,0.9155833749973681,Correct Rejection,1.3759980710424227,88776655,001,2025-11-21_10-26-58,
present,0.7,luksus_compressed.wav,luksus,babble_57.wav,sandhed_reversed.wav,forkert_reversed.wav,,,,,0,132,132,132,,,z,0.7937959999835584,Miss,0.8373395761429333,88776655,001,2025-11-21_10-26-58,
present,0.1,kysse_compressed.wav,kysse,babble_76.wav,modgang_reversed.wav,rigdom_reversed.wav,,,,,0,133,133,133,,,m,0.4123640420148149,Hit,1.2480293598656482,88776655,001,2025-11-21_10-26-58,
present,0.1,flirte_compressed.wav,flirte,babble_26.wav,engel_reversed.wav,flirte_reversed.wav,,,,,0,134,134,134,,,z,1.685691541992128,Miss,1.4736638217858626,88776655,001,2025-11-21_10-26-58,
present,0.6,museum_compressed.wav,museum,babble_94.wav,ugle_reversed.wav,søsyg_reversed.wav,,,,,0,135,135,135,,,z,0.6332266249810345,Miss,0.6847553580283976,88776655,001,2025-11-21_10-26-58,
present,0.6,regnbue_compressed.wav,regnbue,babble_60.wav,illoyal_reversed.wav,sikker_reversed.wav,,,,,0,136,136,136,,,z,0.9057743750163354,Miss,0.7214076186866507,88776655,001,2025-11-21_10-26-58,
absent,0.4,SILENCE,NA,babble_83.wav,himlen_reversed.wav,ensom_reversed.wav,,,,,0,137,137,137,,,z,0.6926751660066657,Correct Rejection,0.7819616863128138,88776655,001,2025-11-21_10-26-58,
present,0.1,selvmord_compressed.wav,selvmord,babble_5.wav,gratis_reversed.wav,venlig_reversed.wav,,,,,0,138,138,138,,,m,0.3615892910165712,Hit,1.429911791097311,88776655,001,2025-11-21_10-26-58,
absent,0.6,SILENCE,NA,babble_38.wav,lyse_reversed.wav,hånlig_reversed.wav,,,,,0,139,139,139,,,z,1.1671142920095008,Correct Rejection,1.4641125956814713,88776655,001,2025-11-21_10-26-58,
present,0.7,opstemt_compressed.wav,opstemt,babble_43.wav,konge_reversed.wav,fjollet_reversed.wav,,,,,0,140,140,140,,,z,8.124227874999633,Miss,1.2669480791447347,88776655,001,2025-11-21_10-26-58,
absent,0.6,SILENCE,NA,babble_3.wav,magisk_reversed.wav,luksus_reversed.wav,,,,,0,141,141,141,,,z,0.7887044159870129,Correct Rejection,1.076567920772648,88776655,001,2025-11-21_10-26-58,
present,0.1,gidsel_compressed.wav,gidsel,babble_97.wav,ledning_reversed.wav,beskidt_reversed.wav,,,,,0,142,142,142,,,m,0.7958132500061765,Hit,0.7743343046542149,88776655,001,2025-11-21_10-26-58,
present,0.6,søsyg_compressed.wav,søsyg,babble_41.wav,smerte_reversed.wav,fremskridt_reversed.wav,,,,,0,143,143,143,,,m,0.6118493340036366,Hit,0.5409065474685093,88776655,001,2025-11-21_10-26-58,
absent,0.7,SILENCE,NA,babble_74.wav,lyse_reversed.wav,bombe_reversed.wav,,,,,0,144,144,144,,,z,0.5187204160029069,Correct Rejection,0.6808103899271749,88776655,001,2025-11-21_10-26-58,
present,0.7,ankel_compressed.wav,ankel,babble_64.wav,statue_reversed.wav,vandal_reversed.wav,,,,,0,145,145,145,,,z,0.39763979200506583,Miss,1.497902536017064,88776655,001,2025-11-21_10-26-58,
present,0.3,accept_compressed.wav,accept,babble_41.wav,tilfreds_reversed.wav,genstand_reversed.wav,,,,,0,146,146,146,,,z,0.45609758401406,Miss,1.1871992126573052,88776655,001,2025-11-21_10-26-58,
present,0.7,dæmpet_compressed.wav,dæmpet,babble_44.wav,museum_reversed.wav,brutal_reversed.wav,,,,,0,147,147,147,,,z,0.5500311669893563,Miss,0.734300643401805,88776655,001,2025-11-21_10-26-58,
present,0.6,sygdom_compressed.wav,sygdom,babble_34.wav,selvmord_reversed.wav,knude_reversed.wav,,,,,0,148,148,148,,,m,0.1963969580247067,Hit,0.8003424557637376,88776655,001,2025-11-21_10-26-58,
absent,0.3,SILENCE,NA,babble_49.wav,venlig_reversed.wav,grusom_reversed.wav,,,,,0,149,149,149,,,z,1.6283459999831393,Correct Rejection,0.924963448080093,88776655,001,2025-11-21_10-26-58,
present,0.2,himlen_compressed.wav,himlen,babble_59.wav,ørken_reversed.wav,kontor_reversed.wav,,,,,0,150,150,150,,,m,0.37078283401206136,Hit,1.3511594032432672,88776655,001,2025-11-21_10-26-58,
present,0.5,ferie_compressed.wav,ferie,babble_99.wav,selvmord_reversed.wav,ugle_reversed.wav,,,,,0,151,151,151,,,z,1.2808568339969497,Miss,1.0233991061537293,88776655,001,2025-11-21_10-26-58,
present,0.5,museum_compressed.wav,museum,babble_35.wav,krise_reversed.wav,hage_reversed.wav,,,,,0,152,152,152,,,z,1.0468620419851504,Miss,1.3504341490140317,88776655,001,2025-11-21_10-26-58,
absent,0.3,SILENCE,NA,babble_88.wav,morder_reversed.wav,nonne_reversed.wav,,,,,0,153,153,153,,,z,0.9047961669857614,Correct Rejection,0.977147436405202,88776655,001,2025-11-21_10-26-58,
absent,0.2,SILENCE,NA,babble_32.wav,blodig_reversed.wav,poesi_reversed.wav,,,,,0,154,154,154,,,z,6.5401019169948995,Correct Rejection,1.3281657305248573,88776655,001,2025-11-21_10-26-58,
absent,0.4,SILENCE,NA,babble_17.wav,taber_reversed.wav,hage_reversed.wav,,,,,0,155,155,155,,,z,2.189660416013794,Correct Rejection,0.5468287300142757,88776655,001,2025-11-21_10-26-58,
present,0.3,voldtægt_compressed.wav,voldtægt,babble_89.wav,fedme_reversed.wav,papir_reversed.wav,,,,,0,156,156,156,,,m,0.37289091700222343,Hit,0.6184734874279992,88776655,001,2025-11-21_10-26-58,
absent,0.7,SILENCE,NA,babble_5.wav,violin_reversed.wav,vandal_reversed.wav,,,,,0,157,157,157,,,z,0.8136493750207592,Correct Rejection,0.518155751743805,88776655,001,2025-11-21_10-26-58,
absent,0.3,SILENCE,NA,babble_51.wav,sindssyg_reversed.wav,sandhed_reversed.wav,,,,,0,158,158,158,,,z,0.7147133329999633,Correct Rejection,1.4476025413178224,88776655,001,2025-11-21_10-26-58,
present,0.2,tønde_compressed.wav,tønde,babble_45.wav,opstemt_reversed.wav,talent_reversed.wav,,,,,0,159,159,159,,,m,0.6581154579762369,Hit,0.5990564714340834,88776655,001,2025-11-21_10-26-58,
present,0.2,røver_compressed.wav,røver,babble_26.wav,grusom_reversed.wav,sæde_reversed.wav,,,,,0,160,160,160,,,z,0.44131250004284084,Miss,0.521033138326268,88776655,001,2025-11-21_10-26-58,
absent,0.3,SILENCE,NA,babble_46.wav,himlen_reversed.wav,illoyal_reversed.wav,,,,,0,161,161,161,,,z,0.7498164999997243,Correct Rejection,0.715891317453441,88776655,001,2025-11-21_10-26-58,
absent,0.5,SILENCE,NA,babble_25.wav,bange_reversed.wav,kujon_reversed.wav,,,,,0,162,162,162,,,z,0.7892536669969559,Correct Rejection,1.2106061768061194,88776655,001,2025-11-21_10-26-58,
present,0.4,boble_compressed.wav,boble,babble_55.wav,bifald_reversed.wav,ønske_reversed.wav,,,,,0,163,163,163,,,z,1.1599057920393534,Miss,0.7869983297901778,88776655,001,2025-11-21_10-26-58,
absent,0.2,SILENCE,NA,babble_94.wav,maling_reversed.wav,talent_reversed.wav,,,,,0,164,164,164,,,z,0.7437639170093462,Correct Rejection,1.240842460221557,88776655,001,2025-11-21_10-26-58,
present,0.3,hader_compressed.wav,hader,babble_54.wav,rådden_reversed.wav,papir_reversed.wav,,,,,0,165,165,165,,,m,0.3635483749676496,Hit,0.5246092884036053,88776655,001,2025-11-21_10-26-58,
present,0.3,gaffel_compressed.wav,gaffel,babble_53.wav,gratis_reversed.wav,genert_reversed.wav,,,,,0,166,166,166,,,m,0.33201295899925753,Hit,1.3297279066634529,88776655,001,2025-11-21_10-26-58,
absent,0.1,SILENCE,NA,babble_89.wav,bygning_reversed.wav,talent_reversed.wav,,,,,0,167,167,167,,,z,0.8845242919633165,Correct Rejection,1.1638172066844583,88776655,001,2025-11-21_10-26-58,
absent,0.4,SILENCE,NA,babble_65.wav,slagtning_reversed.wav,genstand_reversed.wav,,,,,0,168,168,168,,,z,0.5492443340481259,Correct Rejection,0.6180321179813436,88776655,001,2025-11-21_10-26-58,
present,0.2,rådden_compressed.wav,rådden,babble_58.wav,ensom_reversed.wav,fjollet_reversed.wav,,,,,0,169,169,169,,,z,1.1663137910072692,Miss,1.026329423439607,88776655,001,2025-11-21_10-26-58,
absent,0.4,SILENCE,NA,babble_18.wav,mave_reversed.wav,borddug_reversed.wav,,,,,0,170,170,170,,,z,0.7279250000137836,Correct Rejection,0.8158856495719712,88776655,001,2025-11-21_10-26-58,
absent,0.1,SILENCE,NA,babble_31.wav,slave_reversed.wav,enhed_reversed.wav,,,,,0,171,171,171,,,z,0.3706422080285847,Correct Rejection,1.2725167316547972,88776655,001,2025-11-21_10-26-58,
present,0.6,pjece_compressed.wav,pjece,babble_11.wav,succes_reversed.wav,statue_reversed.wav,,,,,0,172,172,172,,,m,0.54751604096964,Hit,0.6602548782530409,88776655,001,2025-11-21_10-26-58,
absent,0.1,SILENCE,NA,babble_75.wav,vinde_reversed.wav,kugle_reversed.wav,,,,,0,173,173,173,,,z,1.137351082987152,Correct Rejection,0.7641418102761123,88776655,001,2025-11-21_10-26-58,
present,0.4,utro_compressed.wav,utro,babble_0.wav,kugle_reversed.wav,rotte_reversed.wav,,,,,0,174,174,174,,,z,0.7530037499964237,Miss,1.19489365904822,88776655,001,2025-11-21_10-26-58,
present,0.1,frihed_compressed.wav,frihed,babble_85.wav,sikker_reversed.wav,bifald_reversed.wav,,,,,0,175,175,175,,,m,0.8733478329959325,Hit,1.219926432365428,88776655,001,2025-11-21_10-26-58,
absent,0.7,SILENCE,NA,babble_78.wav,bifald_reversed.wav,patent_reversed.wav,,,,,0,176,176,176,,,z,0.8496203339891508,Correct Rejection,0.5468115795933899,88776655,001,2025-11-21_10-26-58,
present,0.4,talent_compressed.wav,talent,babble_75.wav,konkurs_reversed.wav,skyldig_reversed.wav,,,,,0,177,177,177,,,z,0.8985964999883436,Miss,1.0603053441952826,88776655,001,2025-11-21_10-26-58,
absent,0.3,SILENCE,NA,babble_28.wav,syndig_reversed.wav,nøgle_reversed.wav,,,,,0,178,178,178,,,z,1.1000460419454612,Correct Rejection,0.827916591322898,88776655,001,2025-11-21_10-26-58,
present,0.1,kærtegn_compressed.wav,kærtegn,babble_24.wav,pervers_reversed.wav,boble_reversed.wav,,,,,0,179,179,179,,,z,0.5165653750300407,Miss,1.2502305650434788,88776655,001,2025-11-21_10-26-58,
absent,0.1,SILENCE,NA,babble_75.wav,ørken_reversed.wav,sæde_reversed.wav,,,,,0,180,180,180,,,z,0.6855755420401692,Correct Rejection,0.6514455425830009,88776655,001,2025-11-21_10-26-58,
absent,0.7,SILENCE,NA,babble_83.wav,væmmes_reversed.wav,vindue_reversed.wav,,,,,0,181,181,181,,,z,0.6170876660034992,Correct Rejection,1.029677570826402,88776655,001,2025-11-21_10-26-58,
present,0.5,cirkel_compressed.wav,cirkel,babble_57.wav,pude_reversed.wav,forpint_reversed.wav,,,,,0,182,182,182,,,z,1.0002318330225535,Miss,1.2426355403717997,88776655,001,2025-11-21_10-26-58,
present,0.4,luksus_compressed.wav,luksus,babble_39.wav,banner_reversed.wav,syndig_reversed.wav,,,,,0,183,183,183,,,m,0.5128624160424806,Hit,1.3078510443983309,88776655,001,2025-11-21_10-26-58,
absent,0.1,SILENCE,NA,babble_51.wav,offer_reversed.wav,kande_reversed.wav,,,,,0,184,184,184,,,z,1.6013024160056375,Correct Rejection,1.0103417500659402,88776655,001,2025-11-21_10-26-58,
present,0.6,vinde_compressed.wav,vinde,babble_11.wav,rabies_reversed.wav,ørken_reversed.wav,,,,,0,185,185,185,,,z,1.199923417007085,Miss,0.5087660309102083,88776655,001,2025-11-21_10-26-58,
absent,0.3,SILENCE,NA,babble_21.wav,kujon_reversed.wav,trofæ_reversed.wav,,,,,0,186,186,186,,,z,1.4405324999825098,Correct Rejection,1.4200624018379684,88776655,001,2025-11-21_10-26-58,
present,0.2,varme_compressed.wav,varme,babble_4.wav,offer_reversed.wav,redskab_reversed.wav,,,,,0,187,187,187,,,z,1.184571749996394,Miss,0.9718423949613686,88776655,001,2025-11-21_10-26-58,
absent,0.3,SILENCE,NA,babble_92.wav,rigdom_reversed.wav,modgang_reversed.wav,,,,,0,188,188,188,,,z,3.070305790985003,Correct Rejection,0.8407399280868885,88776655,001,2025-11-21_10-26-58,
present,0.2,kontor_compressed.wav,kontor,babble_83.wav,sæde_reversed.wav,vandal_reversed.wav,,,,,0,189,189,189,,,m,0.4496299580205232,Hit,1.363276966328188,88776655,001,2025-11-21_10-26-58,
present,0.1,ønske_compressed.wav,ønske,babble_29.wav,mave_reversed.wav,modgang_reversed.wav,,,,,0,190,190,190,,,m,0.45905754197156057,Hit,0.9265522496433837,88776655,001,2025-11-21_10-26-58,
absent,0.2,SILENCE,NA,babble_26.wav,accept_reversed.wav,skuffe_reversed.wav,,,,,0,191,191,191,,,z,1.2956501659937203,Correct Rejection,0.5316393664583874,88776655,001,2025-11-21_10-26-58,
absent,0.1,SILENCE,NA,babble_76.wav,ensom_reversed.wav,albue_reversed.wav,,,,,0,192,192,192,,,z,1.4141127080074511,Correct Rejection,0.987387857340106,88776655,001,2025-11-21_10-26-58,
absent,0.7,SILENCE,NA,babble_36.wav,feber_reversed.wav,offer_reversed.wav,,,,,0,193,193,193,,,z,4.315884292009287,Correct Rejection,0.8922965266649153,88776655,001,2025-11-21_10-26-58,
present,0.7,sygdom_compressed.wav,sygdom,babble_54.wav,rigdom_reversed.wav,respekt_reversed.wav,,,,,0,194,194,194,,,z,1.4489515000022948,Miss,1.3312783426310384,88776655,001,2025-11-21_10-26-58,
absent,0.2,SILENCE,NA,babble_57.wav,brænde_reversed.wav,dollar_reversed.wav,,,,,0,195,195,195,,,z,2.2303238750318997,Correct Rejection,0.8492346700318921,88776655,001,2025-11-21_10-26-58,
absent,0.7,SILENCE,NA,babble_31.wav,illoyal_reversed.wav,ferie_reversed.wav,,,,,0,196,196,196,,,z,1.5404562500189058,Correct Rejection,0.7606237817495922,88776655,001,2025-11-21_10-26-58,
absent,0.3,SILENCE,NA,babble_95.wav,redning_reversed.wav,engel_reversed.wav,,,,,0,197,197,197,,,z,0.7025251250015572,Correct Rejection,0.5201551970111599,88776655,001,2025-11-21_10-26-58,
absent,0.5,SILENCE,NA,babble_48.wav,illoyal_reversed.wav,fiasko_reversed.wav,,,,,0,198,198,198,,,z,1.6575500830076635,Correct Rejection,0.560723919722792,88776655,001,2025-11-21_10-26-58,
present,0.6,mave_compressed.wav,mave,babble_18.wav,brutal_reversed.wav,pjece_reversed.wav,,,,,0,199,199,199,,,z,0.8926940830424428,Miss,0.8785556402784302,88776655,001,2025-11-21_10-26-58,
absent,0.6,SILENCE,NA,babble_78.wav,nonsens_reversed.wav,traume_reversed.wav,,,,,0,200,200,200,,,z,0.4771491670398973,Correct Rejection,1.1343284384169015,88776655,001,2025-11-21_10-26-58,
absent,0.2,SILENCE,NA,babble_87.wav,affald_reversed.wav,succes_reversed.wav,,,,,0,201,201,201,,,z,0.6842405420029536,Correct Rejection,0.6765547399874998,88776655,001,2025-11-21_10-26-58,
absent,0.6,SILENCE,NA,babble_33.wav,lækker_reversed.wav,morder_reversed.wav,,,,,0,202,202,202,,,z,0.5858171670115553,Correct Rejection,0.6860064154105333,88776655,001,2025-11-21_10-26-58,
present,0.4,taxa_compressed.wav,taxa,babble_48.wav,frygtsom_reversed.wav,enhed_reversed.wav,,,,,0,203,203,203,,,z,0.661896915989928,Miss,1.1733087879429906,88776655,001,2025-11-21_10-26-58,
absent,0.1,SILENCE,NA,babble_27.wav,ensom_reversed.wav,leder_reversed.wav,,,,,0,204,204,204,,,z,1.8924286250257865,Correct Rejection,1.2465312225750584,88776655,001,2025-11-21_10-26-58,
present,0.6,succes_compressed.wav,succes,babble_61.wav,syndig_reversed.wav,brænde_reversed.wav,,,,,0,205,205,205,,,z,0.9317717910162173,Miss,0.800932857773702,88776655,001,2025-11-21_10-26-58,
absent,0.2,SILENCE,NA,babble_10.wav,passion_reversed.wav,konkurs_reversed.wav,,,,,0,206,206,206,,,z,1.2904745410196483,Correct Rejection,0.7671800303679602,88776655,001,2025-11-21_10-26-58,
absent,0.3,SILENCE,NA,babble_23.wav,brutal_reversed.wav,konkurs_reversed.wav,,,,,0,207,207,207,,,z,0.8348395000211895,Correct Rejection,0.9028812620123561,88776655,001,2025-11-21_10-26-58,
present,0.3,ugle_compressed.wav,ugle,babble_18.wav,grimme_reversed.wav,albue_reversed.wav,,,,,0,208,208,208,,,z,0.8967810830217786,Miss,1.4323574228704552,88776655,001,2025-11-21_10-26-58,
present,0.5,borddug_compressed.wav,borddug,babble_2.wav,accept_reversed.wav,passion_reversed.wav,,,,,0,209,209,209,,,z,0.6629363330430351,Miss,1.0270830069314032,88776655,001,2025-11-21_10-26-58,
