signal_type,compression_level,prime_file,correct_word,babbling_file,mask1_file,mask2_file,practice.thisRepN,practice.thisTrialN,practice.thisN,practice.thisIndex,main.thisRepN,main.thisTrialN,main.thisN,main.thisIndex,thisRow.t,notes,response_key,rt,trial_outcome,babble_duration,Participant ID,Session,date,
absent,0.1,SILENCE,NA,bab5.wav,rotte_reversed.wav,humor_reversed.wav,0,0,0,0,0,-1,-1,0,,,z,1.4244805420003104,Correct Rejection,1.1065819662747418,johanv1,001,2025-11-13_16-36-05,
absent,0.5,SILENCE,NA,bab9.wav,avis_reversed.wav,kande_reversed.wav,0,1,1,1,0,-1,-1,0,,,z,1.0472129169993423,Correct Rejection,1.1066365465669743,johanv1,001,2025-11-13_16-36-05,
present,0.5,sæde_compressed.wav,sæde,bab21.wav,patent_reversed.wav,talent_reversed.wav,0,2,2,2,0,-1,-1,0,,,z,0.9887176669999462,Miss,1.2943098577870815,johanv1,001,2025-11-13_16-36-05,
absent,0.7,SILENCE,NA,bab4.wav,vandfald_reversed.wav,væmmes_reversed.wav,0,3,3,3,0,-1,-1,0,,,z,0.9378766249992623,Correct Rejection,0.5566850359156293,johanv1,001,2025-11-13_16-36-05,
absent,0.4,SILENCE,NA,bab21.wav,tortur_reversed.wav,søsyg_reversed.wav,0,4,4,4,0,-1,-1,0,,,z,4.6055875410002045,Correct Rejection,1.0777405501268325,johanv1,001,2025-11-13_16-36-05,
absent,0.3,SILENCE,NA,bab9.wav,kærtegn_reversed.wav,kujon_reversed.wav,0,5,5,5,0,-1,-1,0,,,z,2.0189397500007544,Correct Rejection,0.7987939286961682,johanv1,001,2025-11-13_16-36-05,
present,0.2,talent_compressed.wav,talent,bab13.wav,salat_reversed.wav,koldbrand_reversed.wav,0,6,6,6,0,-1,-1,0,,,m,0.8003038329998162,Hit,1.0127482721561476,johanv1,001,2025-11-13_16-36-05,
present,0.6,venlig_compressed.wav,venlig,bab15.wav,violin_reversed.wav,himlen_reversed.wav,0,7,7,7,0,-1,-1,0,,,z,0.7741357919994698,Miss,1.331529098354871,johanv1,001,2025-11-13_16-36-05,
absent,0.2,SILENCE,NA,bab20.wav,mave_reversed.wav,fjendtlig_reversed.wav,0,8,8,8,0,-1,-1,0,,,z,0.7956432080000013,Correct Rejection,1.1773394825619807,johanv1,001,2025-11-13_16-36-05,
absent,0.6,SILENCE,NA,bab21.wav,himlen_reversed.wav,varme_reversed.wav,0,9,9,9,0,-1,-1,0,,,z,0.467984666999655,Correct Rejection,1.4696833792010295,johanv1,001,2025-11-13_16-36-05,
present,0.3,skammel_compressed.wav,skammel,bab6.wav,skyldig_reversed.wav,sikker_reversed.wav,0,10,10,10,0,-1,-1,0,,,m,1.0023221249994094,Hit,0.7072581502673441,johanv1,001,2025-11-13_16-36-05,
present,0.4,taxa_compressed.wav,taxa,bab14.wav,pjece_reversed.wav,genstand_reversed.wav,0,11,11,11,0,-1,-1,0,,,m,1.2727166659997238,Hit,1.4935847790092027,johanv1,001,2025-11-13_16-36-05,
present,0.1,mester_compressed.wav,mester,bab9.wav,trussel_reversed.wav,papir_reversed.wav,0,12,12,12,0,-1,-1,0,,,m,1.211535792000177,Hit,0.9574776958894643,johanv1,001,2025-11-13_16-36-05,
present,0.7,kugle_compressed.wav,kugle,bab6.wav,hader_reversed.wav,banner_reversed.wav,0,13,13,13,0,-1,-1,0,,,m,1.7475720419997742,Hit,0.6342484524966059,johanv1,001,2025-11-13_16-36-05,
present,0.1,tønde_compressed.wav,tønde,bab20.wav,hjerte_reversed.wav,spænding_reversed.wav,,,,,0,0,0,0,,,m,1.2835675830001492,Hit,1.2211313759868951,johanv1,001,2025-11-13_16-36-05,
present,0.5,oprørt_compressed.wav,oprørt,bab5.wav,putte_reversed.wav,konkurs_reversed.wav,,,,,0,1,1,1,,,m,1.242472459000055,Hit,1.3562201085333219,johanv1,001,2025-11-13_16-36-05,
absent,0.6,SILENCE,NA,bab10.wav,skade_reversed.wav,heldig_reversed.wav,,,,,0,2,2,2,,,z,0.7799057080001148,Correct Rejection,1.195233686634677,johanv1,001,2025-11-13_16-36-05,
present,0.2,putte_compressed.wav,putte,bab8.wav,hader_reversed.wav,ferie_reversed.wav,,,,,0,3,3,3,,,m,0.6173649160000423,Hit,0.9706891945978477,johanv1,001,2025-11-13_16-36-05,
absent,0.4,SILENCE,NA,bab6.wav,magisk_reversed.wav,engel_reversed.wav,,,,,0,4,4,4,,,z,1.3298596659997202,Correct Rejection,0.7809281636568212,johanv1,001,2025-11-13_16-36-05,
present,0.6,vinde_compressed.wav,vinde,bab8.wav,kugle_reversed.wav,bygning_reversed.wav,,,,,0,5,5,5,,,m,0.6135765829994853,Hit,0.741989406471055,johanv1,001,2025-11-13_16-36-05,
absent,0.1,SILENCE,NA,bab5.wav,selvmord_reversed.wav,sindssyg_reversed.wav,,,,,0,6,6,6,,,z,1.0923439999996845,Correct Rejection,0.7548300998477756,johanv1,001,2025-11-13_16-36-05,
absent,0.3,SILENCE,NA,bab8.wav,accept_reversed.wav,plakat_reversed.wav,,,,,0,7,7,7,,,z,0.8523783339996953,Correct Rejection,0.5052524245082922,johanv1,001,2025-11-13_16-36-05,
absent,0.2,SILENCE,NA,bab13.wav,søsyg_reversed.wav,heldig_reversed.wav,,,,,0,8,8,8,,,z,1.061345541999799,Correct Rejection,1.4846705309804902,johanv1,001,2025-11-13_16-36-05,
absent,0.6,SILENCE,NA,bab6.wav,illoyal_reversed.wav,luksus_reversed.wav,,,,,0,9,9,9,,,z,0.5394304999999804,Correct Rejection,0.9353213389982423,johanv1,001,2025-11-13_16-36-05,
present,0.6,ønske_compressed.wav,ønske,bab14.wav,rigdom_reversed.wav,kugle_reversed.wav,,,,,0,10,10,10,,,m,0.5944717090005724,Hit,0.7706294304908118,johanv1,001,2025-11-13_16-36-05,
absent,0.2,SILENCE,NA,bab14.wav,kedel_reversed.wav,skyldig_reversed.wav,,,,,0,11,11,11,,,z,0.7173444999998537,Correct Rejection,1.0051788070266703,johanv1,001,2025-11-13_16-36-05,
absent,0.1,SILENCE,NA,bab13.wav,sexet_reversed.wav,frihed_reversed.wav,,,,,0,12,12,12,,,z,0.814839290999771,Correct Rejection,1.139299017353415,johanv1,001,2025-11-13_16-36-05,
present,0.3,museum_compressed.wav,museum,bab5.wav,bifald_reversed.wav,djævel_reversed.wav,,,,,0,13,13,13,,,m,0.8983791250002469,Hit,1.4977387131017017,johanv1,001,2025-11-13_16-36-05,
present,0.5,glæde_compressed.wav,glæde,bab9.wav,bange_reversed.wav,kujon_reversed.wav,,,,,0,14,14,14,,,m,0.2934555830006502,Hit,1.1891845938119023,johanv1,001,2025-11-13_16-36-05,
present,0.6,hjerte_compressed.wav,hjerte,bab13.wav,accept_reversed.wav,selvmord_reversed.wav,,,,,0,15,15,15,,,m,0.4647727500005203,Hit,1.022843745111698,johanv1,001,2025-11-13_16-36-05,
absent,0.4,SILENCE,NA,bab5.wav,violin_reversed.wav,grimme_reversed.wav,,,,,0,16,16,16,,,z,0.7301625830004923,Correct Rejection,1.269559185237065,johanv1,001,2025-11-13_16-36-05,
absent,0.3,SILENCE,NA,bab14.wav,utro_reversed.wav,humor_reversed.wav,,,,,0,17,17,17,,,z,0.8593605839996599,Correct Rejection,1.1057987060125942,johanv1,001,2025-11-13_16-36-05,
present,0.6,konge_compressed.wav,konge,bab6.wav,selvmord_reversed.wav,trofæ_reversed.wav,,,,,0,18,18,18,,,m,0.9284375839997665,Hit,1.3313950832685495,johanv1,001,2025-11-13_16-36-05,
absent,0.2,SILENCE,NA,bab13.wav,fremskridt_reversed.wav,genert_reversed.wav,,,,,0,19,19,19,,,z,1.4091881249996732,Correct Rejection,0.9861705958623609,johanv1,001,2025-11-13_16-36-05,
present,0.2,violin_compressed.wav,violin,bab6.wav,ensom_reversed.wav,himmel_reversed.wav,,,,,0,20,20,20,,,m,2.8253777079999054,Hit,1.3734010467368125,johanv1,001,2025-11-13_16-36-05,
absent,0.1,SILENCE,NA,bab15.wav,succes_reversed.wav,skuffe_reversed.wav,,,,,0,21,21,21,,,m,1.0545507919996453,False Alarm,1.056760587383336,johanv1,001,2025-11-13_16-36-05,
absent,0.3,SILENCE,NA,bab10.wav,vandal_reversed.wav,violin_reversed.wav,,,,,0,22,22,22,,,z,1.0923757089994979,Correct Rejection,1.436896661981714,johanv1,001,2025-11-13_16-36-05,
present,0.4,redskab_compressed.wav,redskab,bab5.wav,kedel_reversed.wav,ugle_reversed.wav,,,,,0,23,23,23,,,m,0.5134918329995344,Hit,0.7808039758696775,johanv1,001,2025-11-13_16-36-05,
absent,0.1,SILENCE,NA,bab6.wav,modgang_reversed.wav,væmmes_reversed.wav,,,,,0,24,24,24,,,z,3.1359788750005464,Correct Rejection,1.3714854833883399,johanv1,001,2025-11-13_16-36-05,
absent,0.7,SILENCE,NA,bab21.wav,sejre_reversed.wav,frihed_reversed.wav,,,,,0,25,25,25,,,z,1.181923540999378,Correct Rejection,1.172664687493306,johanv1,001,2025-11-13_16-36-05,
absent,0.1,SILENCE,NA,bab8.wav,baby_reversed.wav,kedel_reversed.wav,,,,,0,26,26,26,,,z,0.619262083000649,Correct Rejection,1.0821363347366098,johanv1,001,2025-11-13_16-36-05,
absent,0.4,SILENCE,NA,bab15.wav,illoyal_reversed.wav,djævel_reversed.wav,,,,,0,27,27,27,,,z,0.6999439580004037,Correct Rejection,0.8299455771313259,johanv1,001,2025-11-13_16-36-05,
present,0.5,putte_compressed.wav,putte,bab6.wav,vindue_reversed.wav,patent_reversed.wav,,,,,0,28,28,28,,,m,0.5490825830001995,Hit,0.6563296766697115,johanv1,001,2025-11-13_16-36-05,
present,0.6,hårnål_compressed.wav,hårnål,bab5.wav,dæmon_reversed.wav,avis_reversed.wav,,,,,0,29,29,29,,,z,0.717932916000791,Miss,1.4680838065575865,johanv1,001,2025-11-13_16-36-05,
absent,0.1,SILENCE,NA,bab15.wav,væmmes_reversed.wav,sikker_reversed.wav,,,,,0,30,30,30,,,z,0.7125955840001552,Correct Rejection,0.7705018250623701,johanv1,001,2025-11-13_16-36-05,
absent,0.3,SILENCE,NA,bab14.wav,lækker_reversed.wav,frihed_reversed.wav,,,,,0,31,31,31,,,z,0.5079760830003579,Correct Rejection,0.555305673652868,johanv1,001,2025-11-13_16-36-05,
absent,0.7,SILENCE,NA,bab15.wav,tilfreds_reversed.wav,kedel_reversed.wav,,,,,0,32,32,32,,,z,0.3285339580006621,Correct Rejection,0.7597825314539272,johanv1,001,2025-11-13_16-36-05,
present,0.4,misbrug_compressed.wav,misbrug,bab21.wav,enhed_reversed.wav,viden_reversed.wav,,,,,0,33,33,33,,,z,0.5789475830006268,Miss,1.2651680412339874,johanv1,001,2025-11-13_16-36-05,
present,0.7,forkert_compressed.wav,forkert,bab21.wav,misbrug_reversed.wav,gratis_reversed.wav,,,,,0,34,34,34,,,m,0.44171629199991,Hit,0.5475745964215327,johanv1,001,2025-11-13_16-36-05,
present,0.4,enhed_compressed.wav,enhed,bab4.wav,taber_reversed.wav,vandfald_reversed.wav,,,,,0,35,35,35,,,m,3.245373875000041,Hit,0.649809714674392,johanv1,001,2025-11-13_16-36-05,
absent,0.3,SILENCE,NA,bab5.wav,kujon_reversed.wav,skuffe_reversed.wav,,,,,0,36,36,36,,,z,1.3594588330006445,Correct Rejection,1.273784774550128,johanv1,001,2025-11-13_16-36-05,
present,0.4,ferie_compressed.wav,ferie,bab10.wav,borddug_reversed.wav,glæde_reversed.wav,,,,,0,37,37,37,,,m,0.8103522920000614,Hit,0.8622120517673003,johanv1,001,2025-11-13_16-36-05,
present,0.3,sandhed_compressed.wav,sandhed,bab10.wav,konge_reversed.wav,gratis_reversed.wav,,,,,0,38,38,38,,,m,0.23188404200027435,Hit,0.6647019750003152,johanv1,001,2025-11-13_16-36-05,
absent,0.3,SILENCE,NA,bab5.wav,violin_reversed.wav,natur_reversed.wav,,,,,0,39,39,39,,,z,0.6400577080003131,Correct Rejection,1.483306275654067,johanv1,001,2025-11-13_16-36-05,
absent,0.4,SILENCE,NA,bab10.wav,kujon_reversed.wav,hage_reversed.wav,,,,,0,40,40,40,,,z,1.3850287499999467,Correct Rejection,1.1853211267792982,johanv1,001,2025-11-13_16-36-05,
present,0.1,udskud_compressed.wav,udskud,bab10.wav,voldtægt_reversed.wav,metal_reversed.wav,,,,,0,41,41,41,,,m,0.47337954100021307,Hit,1.4869700759392726,johanv1,001,2025-11-13_16-36-05,
present,0.7,gratis_compressed.wav,gratis,bab14.wav,frihed_reversed.wav,papir_reversed.wav,,,,,0,42,42,42,,,m,0.3100927080004112,Hit,1.4342499725245452,johanv1,001,2025-11-13_16-36-05,
present,0.3,modgang_compressed.wav,modgang,bab14.wav,nonne_reversed.wav,succes_reversed.wav,,,,,0,43,43,43,,,m,0.023708832999545848,Hit,1.139045461710929,johanv1,001,2025-11-13_16-36-05,
absent,0.2,SILENCE,NA,bab15.wav,dæmon_reversed.wav,rigdom_reversed.wav,,,,,0,44,44,44,,,z,0.5782471669999723,Correct Rejection,1.4361817645679802,johanv1,001,2025-11-13_16-36-05,
present,0.3,vandal_compressed.wav,vandal,bab20.wav,redskab_reversed.wav,beskidt_reversed.wav,,,,,0,45,45,45,,,m,1.1302546249999068,Hit,1.0959651254801768,johanv1,001,2025-11-13_16-36-05,
absent,0.5,SILENCE,NA,bab21.wav,himmel_reversed.wav,gratis_reversed.wav,,,,,0,46,46,46,,,z,0.7813859170000796,Correct Rejection,1.2156269476347243,johanv1,001,2025-11-13_16-36-05,
present,0.2,nonne_compressed.wav,nonne,bab14.wav,vandfald_reversed.wav,gaffel_reversed.wav,,,,,0,47,47,47,,,m,0.3603879579995919,Hit,1.3350437206415124,johanv1,001,2025-11-13_16-36-05,
present,0.1,mave_compressed.wav,mave,bab9.wav,sollys_reversed.wav,enhed_reversed.wav,,,,,0,48,48,48,,,m,0.9243440420004845,Hit,0.7705248815671955,johanv1,001,2025-11-13_16-36-05,
absent,0.7,SILENCE,NA,bab5.wav,smerte_reversed.wav,dollar_reversed.wav,,,,,0,49,49,49,,,z,0.6967210419998082,Correct Rejection,0.8978282926479971,johanv1,001,2025-11-13_16-36-05,
present,0.4,smerte_compressed.wav,smerte,bab6.wav,sexet_reversed.wav,pude_reversed.wav,,,,,0,50,50,50,,,m,0.5338703340003121,Hit,1.465418485638697,johanv1,001,2025-11-13_16-36-05,
absent,0.1,SILENCE,NA,bab5.wav,kiste_reversed.wav,fremskridt_reversed.wav,,,,,0,51,51,51,,,z,0.9080374580007629,Correct Rejection,1.3863033221001988,johanv1,001,2025-11-13_16-36-05,
present,0.5,skyldig_compressed.wav,skyldig,bab10.wav,måned_reversed.wav,kæle_reversed.wav,,,,,0,52,52,52,,,m,1.0358725000005506,Hit,1.143251811889714,johanv1,001,2025-11-13_16-36-05,
present,0.4,pjece_compressed.wav,pjece,bab5.wav,rigdom_reversed.wav,trussel_reversed.wav,,,,,0,53,53,53,,,m,0.29166883299967594,Hit,0.9783227452334736,johanv1,001,2025-11-13_16-36-05,
absent,0.6,SILENCE,NA,bab6.wav,genstand_reversed.wav,sæde_reversed.wav,,,,,0,54,54,54,,,z,0.6863713749999079,Correct Rejection,1.4298526350384582,johanv1,001,2025-11-13_16-36-05,
present,0.7,pjece_compressed.wav,pjece,bab20.wav,baby_reversed.wav,passion_reversed.wav,,,,,0,55,55,55,,,m,0.6698157499995432,Hit,0.7376494977185848,johanv1,001,2025-11-13_16-36-05,
absent,0.6,SILENCE,NA,bab8.wav,violin_reversed.wav,tortur_reversed.wav,,,,,0,56,56,56,,,z,0.7819149169999946,Correct Rejection,0.647706432701608,johanv1,001,2025-11-13_16-36-05,
absent,0.2,SILENCE,NA,bab8.wav,konge_reversed.wav,rådden_reversed.wav,,,,,0,57,57,57,,,z,0.7218789580001612,Correct Rejection,0.7582356025953245,johanv1,001,2025-11-13_16-36-05,
present,0.5,poesi_compressed.wav,poesi,bab6.wav,magisk_reversed.wav,vandfald_reversed.wav,,,,,0,58,58,58,,,m,0.2679270420003377,Hit,0.7624616116764376,johanv1,001,2025-11-13_16-36-05,
present,0.1,plakat_compressed.wav,plakat,bab14.wav,rotte_reversed.wav,pervers_reversed.wav,,,,,0,59,59,59,,,m,0.4440262919997622,Hit,1.214464457421601,johanv1,001,2025-11-13_16-36-05,
present,0.2,kæle_compressed.wav,kæle,bab4.wav,borddug_reversed.wav,statue_reversed.wav,,,,,0,60,60,60,,,z,0.3892668329999651,Miss,0.8550667920150646,johanv1,001,2025-11-13_16-36-05,
present,0.7,morder_compressed.wav,morder,bab14.wav,putte_reversed.wav,borddug_reversed.wav,,,,,0,61,61,61,,,m,0.2763739160000114,Hit,1.3008825436000606,johanv1,001,2025-11-13_16-36-05,
present,0.3,røver_compressed.wav,røver,bab13.wav,pjece_reversed.wav,ketchup_reversed.wav,,,,,0,62,62,62,,,z,1.559300500000063,Miss,0.71235699694342,johanv1,001,2025-11-13_16-36-05,
absent,0.5,SILENCE,NA,bab8.wav,fremskridt_reversed.wav,tilfreds_reversed.wav,,,,,0,63,63,63,,,z,1.6017028749993187,Correct Rejection,1.460506615733915,johanv1,001,2025-11-13_16-36-05,
present,0.5,ydmyg_compressed.wav,ydmyg,bab6.wav,enhed_reversed.wav,tilfreds_reversed.wav,,,,,0,64,64,64,,,m,0.3814323749993491,Hit,1.0797169839184684,johanv1,001,2025-11-13_16-36-05,
absent,0.1,SILENCE,NA,bab8.wav,tortur_reversed.wav,illoyal_reversed.wav,,,,,0,65,65,65,,,z,0.8900770000000193,Correct Rejection,0.7730111698227721,johanv1,001,2025-11-13_16-36-05,
absent,0.7,SILENCE,NA,bab13.wav,hader_reversed.wav,hånlig_reversed.wav,,,,,0,66,66,66,,,z,5.647598792000281,Correct Rejection,0.6310504808323103,johanv1,001,2025-11-13_16-36-05,
present,0.5,skammel_compressed.wav,skammel,bab5.wav,borddug_reversed.wav,venlig_reversed.wav,,,,,0,67,67,67,,,m,1.0253129580005407,Hit,1.067288357876465,johanv1,001,2025-11-13_16-36-05,
absent,0.1,SILENCE,NA,bab6.wav,enhed_reversed.wav,knude_reversed.wav,,,,,0,68,68,68,,,z,0.7515953330002958,Correct Rejection,0.6287737210158284,johanv1,001,2025-11-13_16-36-05,
absent,0.6,SILENCE,NA,bab9.wav,gave_reversed.wav,kontor_reversed.wav,,,,,0,69,69,69,,,z,2.1258007920005184,Correct Rejection,1.2825004147500985,johanv1,001,2025-11-13_16-36-05,
present,0.6,beskidt_compressed.wav,beskidt,bab4.wav,gave_reversed.wav,frihed_reversed.wav,,,,,0,70,70,70,,,m,0.5323204579999583,Hit,0.9619700647859419,johanv1,001,2025-11-13_16-36-05,
absent,0.5,SILENCE,NA,bab15.wav,taxa_reversed.wav,fjendtlig_reversed.wav,,,,,0,71,71,71,,,z,0.7906656250006563,Correct Rejection,1.1850802698902738,johanv1,001,2025-11-13_16-36-05,
absent,0.1,SILENCE,NA,bab14.wav,konkurs_reversed.wav,regnbue_reversed.wav,,,,,0,72,72,72,,,z,0.6858740000006947,Correct Rejection,1.4149361664865459,johanv1,001,2025-11-13_16-36-05,
present,0.6,finger_compressed.wav,finger,bab13.wav,magisk_reversed.wav,affald_reversed.wav,,,,,0,73,73,73,,,m,0.38503887499973644,Hit,1.3562990582555172,johanv1,001,2025-11-13_16-36-05,
present,0.3,væmmes_compressed.wav,væmmes,bab10.wav,bifald_reversed.wav,redning_reversed.wav,,,,,0,74,74,74,,,m,1.2013036250000368,Hit,0.5932299711440208,johanv1,001,2025-11-13_16-36-05,
present,0.2,ørken_compressed.wav,ørken,bab14.wav,regnbue_reversed.wav,diamant_reversed.wav,,,,,0,75,75,75,,,m,0.2184348750006393,Hit,0.8519695805984844,johanv1,001,2025-11-13_16-36-05,
present,0.7,traume_compressed.wav,traume,bab14.wav,ankel_reversed.wav,lyse_reversed.wav,,,,,0,76,76,76,,,m,0.2504804999998669,Hit,1.3267244516820367,johanv1,001,2025-11-13_16-36-05,
present,0.4,hjerte_compressed.wav,hjerte,bab15.wav,ønske_reversed.wav,statue_reversed.wav,,,,,0,77,77,77,,,m,0.27784470799997507,Hit,0.9344614003894547,johanv1,001,2025-11-13_16-36-05,
absent,0.5,SILENCE,NA,bab14.wav,fase_reversed.wav,poesi_reversed.wav,,,,,0,78,78,78,,,m,1.6805255839999518,False Alarm,1.076340823246051,johanv1,001,2025-11-13_16-36-05,
absent,0.4,SILENCE,NA,bab13.wav,boble_reversed.wav,genstand_reversed.wav,,,,,0,79,79,79,,,z,1.8211733750003987,Correct Rejection,0.9983219538141058,johanv1,001,2025-11-13_16-36-05,
present,0.4,spise_compressed.wav,spise,bab13.wav,bombe_reversed.wav,viden_reversed.wav,,,,,0,80,80,80,,,m,1.340851207999549,Hit,1.2788806312502563,johanv1,001,2025-11-13_16-36-05,
present,0.2,banner_compressed.wav,banner,bab8.wav,voldtægt_reversed.wav,ugle_reversed.wav,,,,,0,81,81,81,,,m,0.6952420839998013,Hit,1.1597335091873846,johanv1,001,2025-11-13_16-36-05,
absent,0.1,SILENCE,NA,bab8.wav,enhed_reversed.wav,drukne_reversed.wav,,,,,0,82,82,82,,,z,0.7663676250003846,Correct Rejection,0.9694776290888226,johanv1,001,2025-11-13_16-36-05,
absent,0.7,SILENCE,NA,bab5.wav,forfald_reversed.wav,kiste_reversed.wav,,,,,0,83,83,83,,,z,0.8916717080001035,Correct Rejection,1.283161283559211,johanv1,001,2025-11-13_16-36-05,
absent,0.5,SILENCE,NA,bab21.wav,grimme_reversed.wav,museum_reversed.wav,,,,,0,84,84,84,,,z,0.5032744170002843,Correct Rejection,1.2118965283374044,johanv1,001,2025-11-13_16-36-05,
absent,0.3,SILENCE,NA,bab13.wav,affald_reversed.wav,fase_reversed.wav,,,,,0,85,85,85,,,z,1.1932254169996668,Correct Rejection,1.0675428479816742,johanv1,001,2025-11-13_16-36-05,
absent,0.7,SILENCE,NA,bab4.wav,rædsel_reversed.wav,koldbrand_reversed.wav,,,,,0,86,86,86,,,z,0.7725335839995751,Correct Rejection,0.5721784299361502,johanv1,001,2025-11-13_16-36-05,
present,0.6,lækker_compressed.wav,lækker,bab10.wav,kande_reversed.wav,kæle_reversed.wav,,,,,0,87,87,87,,,m,0.4333769590002703,Hit,0.6030682663653976,johanv1,001,2025-11-13_16-36-05,
absent,0.7,SILENCE,NA,bab21.wav,dæmpet_reversed.wav,banner_reversed.wav,,,,,0,88,88,88,,,z,0.8648882499992396,Correct Rejection,1.461259867110423,johanv1,001,2025-11-13_16-36-05,
present,0.2,vinde_compressed.wav,vinde,bab5.wav,hader_reversed.wav,lyse_reversed.wav,,,,,0,89,89,89,,,m,0.2707970840001508,Hit,0.8452207943317601,johanv1,001,2025-11-13_16-36-05,
absent,0.6,SILENCE,NA,bab8.wav,passion_reversed.wav,heldig_reversed.wav,,,,,0,90,90,90,,,z,0.7531165409991445,Correct Rejection,0.7952718032782313,johanv1,001,2025-11-13_16-36-05,
present,0.7,slagtning_compressed.wav,slagtning,bab21.wav,pjece_reversed.wav,genstand_reversed.wav,,,,,0,91,91,91,,,m,0.5471382919995449,Hit,1.1773041082214406,johanv1,001,2025-11-13_16-36-05,
absent,0.2,SILENCE,NA,bab4.wav,motor_reversed.wav,forfald_reversed.wav,,,,,0,92,92,92,,,z,0.38935912499982805,Correct Rejection,1.0045808284681612,johanv1,001,2025-11-13_16-36-05,
absent,0.5,SILENCE,NA,bab13.wav,luksus_reversed.wav,kontor_reversed.wav,,,,,0,93,93,93,,,z,0.32857987499937735,Correct Rejection,1.4744558270353032,johanv1,001,2025-11-13_16-36-05,
absent,0.5,SILENCE,NA,bab20.wav,koldbrand_reversed.wav,sejre_reversed.wav,,,,,0,94,94,94,,,m,0.9607328749998487,False Alarm,1.1466541823535574,johanv1,001,2025-11-13_16-36-05,
present,0.5,røver_compressed.wav,røver,bab21.wav,mester_reversed.wav,djævel_reversed.wav,,,,,0,95,95,95,,,m,0.24537099999997736,Hit,1.4882282851291544,johanv1,001,2025-11-13_16-36-05,
absent,0.7,SILENCE,NA,bab4.wav,tilfreds_reversed.wav,statue_reversed.wav,,,,,0,96,96,96,,,z,1.4609557920002771,Correct Rejection,1.206981989266649,johanv1,001,2025-11-13_16-36-05,
absent,0.2,SILENCE,NA,bab15.wav,blomstre_reversed.wav,respekt_reversed.wav,,,,,0,97,97,97,,,m,5.1937622080004076,False Alarm,0.8875068187615496,johanv1,001,2025-11-13_16-36-05,
absent,0.6,SILENCE,NA,bab20.wav,bombe_reversed.wav,oprør_reversed.wav,,,,,0,98,98,98,,,m,1.6855900000000474,False Alarm,0.7125145474332785,johanv1,001,2025-11-13_16-36-05,
present,0.1,albue_compressed.wav,albue,bab20.wav,leder_reversed.wav,spise_reversed.wav,,,,,0,99,99,99,,,m,0.119361583000682,Hit,1.0745555794809762,johanv1,001,2025-11-13_16-36-05,
present,0.5,festlig_compressed.wav,festlig,bab15.wav,fremskridt_reversed.wav,konkurs_reversed.wav,,,,,0,100,100,100,,,m,1.2500335409995387,Hit,0.7664495819355858,johanv1,001,2025-11-13_16-36-05,
absent,0.2,SILENCE,NA,bab20.wav,opstemt_reversed.wav,viden_reversed.wav,,,,,0,101,101,101,,,z,1.016348499999367,Correct Rejection,0.9328331843662974,johanv1,001,2025-11-13_16-36-05,
present,0.4,ønske_compressed.wav,ønske,bab6.wav,konge_reversed.wav,dollar_reversed.wav,,,,,0,102,102,102,,,m,1.6946034169995983,Hit,0.9577291402548016,johanv1,001,2025-11-13_16-36-05,
absent,0.2,SILENCE,NA,bab4.wav,taber_reversed.wav,pervers_reversed.wav,,,,,0,103,103,103,,,z,1.4631038749994332,Correct Rejection,0.5468059589592621,johanv1,001,2025-11-13_16-36-05,
present,0.1,væmmes_compressed.wav,væmmes,bab13.wav,slagtning_reversed.wav,varme_reversed.wav,,,,,0,104,104,104,,,m,0.3088994999998249,Hit,0.9039590965007541,johanv1,001,2025-11-13_16-36-05,
present,0.2,voldtægt_compressed.wav,voldtægt,bab5.wav,rabies_reversed.wav,maling_reversed.wav,,,,,0,105,105,105,,,m,0.6114443750002465,Hit,0.7398769426131199,johanv1,001,2025-11-13_16-36-05,
absent,0.2,SILENCE,NA,bab20.wav,statue_reversed.wav,kiste_reversed.wav,,,,,0,106,106,106,,,z,1.5408746659995813,Correct Rejection,0.6302499393412391,johanv1,001,2025-11-13_16-36-05,
present,0.4,drukne_compressed.wav,drukne,bab5.wav,nøgle_reversed.wav,finger_reversed.wav,,,,,0,107,107,107,,,z,1.2817715000001044,Miss,0.6117193770865138,johanv1,001,2025-11-13_16-36-05,
absent,0.7,SILENCE,NA,bab6.wav,banner_reversed.wav,rabies_reversed.wav,,,,,0,108,108,108,,,z,0.8424277909998636,Correct Rejection,0.8873854492173119,johanv1,001,2025-11-13_16-36-05,
present,0.5,mester_compressed.wav,mester,bab14.wav,rabies_reversed.wav,mave_reversed.wav,,,,,0,109,109,109,,,m,0.735109499999453,Hit,1.243569086068169,johanv1,001,2025-11-13_16-36-05,
absent,0.4,SILENCE,NA,bab15.wav,festlig_reversed.wav,pjece_reversed.wav,,,,,0,110,110,110,,,z,0.6475808750001306,Correct Rejection,1.177776210608774,johanv1,001,2025-11-13_16-36-05,
absent,0.3,SILENCE,NA,bab10.wav,redskab_reversed.wav,hader_reversed.wav,,,,,0,111,111,111,,,z,0.8639695000001666,Correct Rejection,1.4440539594942812,johanv1,001,2025-11-13_16-36-05,
absent,0.6,SILENCE,NA,bab13.wav,hjerte_reversed.wav,luksus_reversed.wav,,,,,0,112,112,112,,,z,0.8510416659992188,Correct Rejection,0.7536524297534009,johanv1,001,2025-11-13_16-36-05,
present,0.3,succes_compressed.wav,succes,bab10.wav,tilfreds_reversed.wav,spise_reversed.wav,,,,,0,113,113,113,,,m,0.6438718749996042,Hit,0.8066333746617876,johanv1,001,2025-11-13_16-36-05,
absent,0.7,SILENCE,NA,bab9.wav,frygtsom_reversed.wav,pude_reversed.wav,,,,,0,114,114,114,,,z,0.957209375000275,Correct Rejection,0.7372123792816222,johanv1,001,2025-11-13_16-36-05,
present,0.1,bifald_compressed.wav,bifald,bab4.wav,lærer_reversed.wav,hader_reversed.wav,,,,,0,115,115,115,,,m,1.8332105839999713,Hit,0.8038480957148996,johanv1,001,2025-11-13_16-36-05,
present,0.6,selvmord_compressed.wav,selvmord,bab15.wav,tilfreds_reversed.wav,sollys_reversed.wav,,,,,0,116,116,116,,,m,0.2508949170005508,Hit,0.8219592228536965,johanv1,001,2025-11-13_16-36-05,
present,0.3,skønhed_compressed.wav,skønhed,bab13.wav,tilfreds_reversed.wav,giftig_reversed.wav,,,,,0,117,117,117,,,m,0.7777987079998638,Hit,1.3981883822596441,johanv1,001,2025-11-13_16-36-05,
present,0.6,vandfald_compressed.wav,vandfald,bab6.wav,søsyg_reversed.wav,poesi_reversed.wav,,,,,0,118,118,118,,,m,0.25195954100036033,Hit,1.1082525008751096,johanv1,001,2025-11-13_16-36-05,
absent,0.6,SILENCE,NA,bab5.wav,spænding_reversed.wav,væmmes_reversed.wav,,,,,0,119,119,119,,,z,17.71356054199987,Correct Rejection,1.2206774906820899,johanv1,001,2025-11-13_16-36-05,
present,0.6,vindue_compressed.wav,vindue,bab9.wav,trofæ_reversed.wav,syndig_reversed.wav,,,,,0,120,120,120,,,m,0.6102253749995725,Hit,1.2861891049070828,johanv1,001,2025-11-13_16-36-05,
present,0.1,papir_compressed.wav,papir,bab4.wav,lyse_reversed.wav,vindue_reversed.wav,,,,,0,121,121,121,,,m,0.37422208299994963,Hit,0.8199346015223272,johanv1,001,2025-11-13_16-36-05,
absent,0.5,SILENCE,NA,bab9.wav,trofæ_reversed.wav,diamant_reversed.wav,,,,,0,122,122,122,,,z,1.0483719579997341,Correct Rejection,1.1443886596889017,johanv1,001,2025-11-13_16-36-05,
absent,0.3,SILENCE,NA,bab6.wav,bygning_reversed.wav,flirte_reversed.wav,,,,,0,123,123,123,,,z,0.6573930829999881,Correct Rejection,0.9978238281131333,johanv1,001,2025-11-13_16-36-05,
absent,0.3,SILENCE,NA,bab20.wav,trussel_reversed.wav,himlen_reversed.wav,,,,,0,124,124,124,,,z,0.8809408329998405,Correct Rejection,0.9111972444027522,johanv1,001,2025-11-13_16-36-05,
absent,0.4,SILENCE,NA,bab4.wav,magisk_reversed.wav,oprør_reversed.wav,,,,,0,125,125,125,,,z,0.8370304170002782,Correct Rejection,0.6253182562709956,johanv1,001,2025-11-13_16-36-05,
present,0.1,himlen_compressed.wav,himlen,bab21.wav,violin_reversed.wav,violin_reversed.wav,,,,,0,126,126,126,,,m,0.46582533399941894,Hit,1.013507140516356,johanv1,001,2025-11-13_16-36-05,
present,0.2,væmmes_compressed.wav,væmmes,bab14.wav,skønhed_reversed.wav,kontor_reversed.wav,,,,,0,127,127,127,,,m,2.2673312500000975,Hit,1.3671146296683918,johanv1,001,2025-11-13_16-36-05,
absent,0.7,SILENCE,NA,bab20.wav,væmmes_reversed.wav,djævel_reversed.wav,,,,,0,128,128,128,,,z,0.750174832999619,Correct Rejection,0.6801999291055287,johanv1,001,2025-11-13_16-36-05,
present,0.1,knude_compressed.wav,knude,bab8.wav,borddug_reversed.wav,plakat_reversed.wav,,,,,0,129,129,129,,,m,0.2483216660002654,Hit,0.7028933307092653,johanv1,001,2025-11-13_16-36-05,
absent,0.6,SILENCE,NA,bab8.wav,enhed_reversed.wav,gaffel_reversed.wav,,,,,0,130,130,130,,,z,0.9697467079995477,Correct Rejection,0.6188752194060062,johanv1,001,2025-11-13_16-36-05,
present,0.3,intim_compressed.wav,intim,bab14.wav,illoyal_reversed.wav,oprør_reversed.wav,,,,,0,131,131,131,,,m,0.5658059999996112,Hit,1.4552686632858105,johanv1,001,2025-11-13_16-36-05,
absent,0.4,SILENCE,NA,bab6.wav,ledning_reversed.wav,banner_reversed.wav,,,,,0,132,132,132,,,z,0.7472051670001747,Correct Rejection,1.3865871132388419,johanv1,001,2025-11-13_16-36-05,
absent,0.3,SILENCE,NA,bab6.wav,mester_reversed.wav,banner_reversed.wav,,,,,0,133,133,133,,,z,0.68214637499932,Correct Rejection,1.2683418049204707,johanv1,001,2025-11-13_16-36-05,
present,0.1,selvmord_compressed.wav,selvmord,bab14.wav,flirte_reversed.wav,gade_reversed.wav,,,,,0,134,134,134,,,m,0.39736412500042206,Hit,0.8440028015793626,johanv1,001,2025-11-13_16-36-05,
present,0.3,voldsom_compressed.wav,voldsom,bab20.wav,sindssyg_reversed.wav,talent_reversed.wav,,,,,0,135,135,135,,,m,0.37471641699994507,Hit,1.4912044444901786,johanv1,001,2025-11-13_16-36-05,
present,0.5,cirkus_compressed.wav,cirkus,bab4.wav,skammel_reversed.wav,nonsens_reversed.wav,,,,,0,136,136,136,,,z,5.751311666999754,Miss,1.1411212761402638,johanv1,001,2025-11-13_16-36-05,
present,0.4,skade_compressed.wav,skade,bab14.wav,enhed_reversed.wav,opstemt_reversed.wav,,,,,0,137,137,137,,,m,0.3081157910000911,Hit,0.6617740034812728,johanv1,001,2025-11-13_16-36-05,
absent,0.5,SILENCE,NA,bab8.wav,albue_reversed.wav,mester_reversed.wav,,,,,0,138,138,138,,,z,0.9046650000000227,Correct Rejection,0.7590736243228624,johanv1,001,2025-11-13_16-36-05,
absent,0.7,SILENCE,NA,bab9.wav,nonne_reversed.wav,borddug_reversed.wav,,,,,0,139,139,139,,,z,0.6713653329998124,Correct Rejection,1.2973375212237963,johanv1,001,2025-11-13_16-36-05,
present,0.7,rådden_compressed.wav,rådden,bab20.wav,bifald_reversed.wav,bygning_reversed.wav,,,,,0,140,140,140,,,m,0.25698216699947807,Hit,1.4433699346275017,johanv1,001,2025-11-13_16-36-05,
present,0.2,dæmon_compressed.wav,dæmon,bab4.wav,rotte_reversed.wav,festlig_reversed.wav,,,,,0,141,141,141,,,m,0.22416358400005265,Hit,1.4791553905169135,johanv1,001,2025-11-13_16-36-05,
present,0.1,oprørt_compressed.wav,oprørt,bab14.wav,forkert_reversed.wav,lærer_reversed.wav,,,,,0,142,142,142,,,z,0.6691908749999129,Miss,0.7354526840237299,johanv1,001,2025-11-13_16-36-05,
absent,0.1,SILENCE,NA,bab8.wav,grimme_reversed.wav,ferie_reversed.wav,,,,,0,143,143,143,,,m,1.5633257090003099,False Alarm,0.7905578570531528,johanv1,001,2025-11-13_16-36-05,
present,0.3,fængsel_compressed.wav,fængsel,bab20.wav,bombe_reversed.wav,morder_reversed.wav,,,,,0,144,144,144,,,z,0.5039210000004459,Miss,1.3175082709928616,johanv1,001,2025-11-13_16-36-05,
present,0.2,brutal_compressed.wav,brutal,bab8.wav,illoyal_reversed.wav,violin_reversed.wav,,,,,0,145,145,145,,,m,0.31881741599954694,Hit,0.9682142068238853,johanv1,001,2025-11-13_16-36-05,
absent,0.7,SILENCE,NA,bab6.wav,konkurs_reversed.wav,succes_reversed.wav,,,,,0,146,146,146,,,z,0.8032665420005287,Correct Rejection,1.1972048839478335,johanv1,001,2025-11-13_16-36-05,
present,0.3,ugle_compressed.wav,ugle,bab10.wav,gidsel_reversed.wav,vandfald_reversed.wav,,,,,0,147,147,147,,,z,0.48440983300042717,Miss,0.8622312477280878,johanv1,001,2025-11-13_16-36-05,
present,0.2,forår_compressed.wav,forår,bab21.wav,albue_reversed.wav,skønhed_reversed.wav,,,,,0,148,148,148,,,m,0.27408837500024674,Hit,1.4567119023191528,johanv1,001,2025-11-13_16-36-05,
present,0.3,jubel_compressed.wav,jubel,bab15.wav,patent_reversed.wav,fiasko_reversed.wav,,,,,0,149,149,149,,,z,0.5474960840001586,Miss,1.1343979562990791,johanv1,001,2025-11-13_16-36-05,
absent,0.3,SILENCE,NA,bab5.wav,forpint_reversed.wav,genstand_reversed.wav,,,,,0,150,150,150,,,z,1.0073337079993507,Correct Rejection,0.9114589216178133,johanv1,001,2025-11-13_16-36-05,
present,0.2,vandal_compressed.wav,vandal,bab14.wav,respekt_reversed.wav,salat_reversed.wav,,,,,0,151,151,151,,,m,0.3084335000003193,Hit,0.7732279837913086,johanv1,001,2025-11-13_16-36-05,
absent,0.5,SILENCE,NA,bab5.wav,slagtning_reversed.wav,smerte_reversed.wav,,,,,0,152,152,152,,,z,1.5611738329998843,Correct Rejection,1.161082492801862,johanv1,001,2025-11-13_16-36-05,
present,0.7,stjerne_compressed.wav,stjerne,bab10.wav,rigdom_reversed.wav,taxa_reversed.wav,,,,,0,153,153,153,,,m,0.6125601670000833,Hit,0.6289395831917997,johanv1,001,2025-11-13_16-36-05,
present,0.4,stjerne_compressed.wav,stjerne,bab14.wav,rigdom_reversed.wav,vandal_reversed.wav,,,,,0,154,154,154,,,m,0.38743875000000116,Hit,0.760606875926981,johanv1,001,2025-11-13_16-36-05,
present,0.1,salat_compressed.wav,salat,bab13.wav,oprør_reversed.wav,genstand_reversed.wav,,,,,0,155,155,155,,,m,0.2500497920000271,Hit,0.5686955041434272,johanv1,001,2025-11-13_16-36-05,
absent,0.2,SILENCE,NA,bab20.wav,sygdom_reversed.wav,konkurs_reversed.wav,,,,,0,156,156,156,,,z,0.937229875000412,Correct Rejection,0.8468250656021618,johanv1,001,2025-11-13_16-36-05,
absent,0.3,SILENCE,NA,bab4.wav,dæmpet_reversed.wav,nedbrud_reversed.wav,,,,,0,157,157,157,,,z,1.7145066670000233,Correct Rejection,1.3226368558217545,johanv1,001,2025-11-13_16-36-05,
absent,0.6,SILENCE,NA,bab21.wav,ugle_reversed.wav,nedbrud_reversed.wav,,,,,0,158,158,158,,,z,1.096587458000613,Correct Rejection,1.0493577921107755,johanv1,001,2025-11-13_16-36-05,
present,0.1,afskyr_compressed.wav,afskyr,bab4.wav,utro_reversed.wav,kujon_reversed.wav,,,,,0,159,159,159,,,m,0.22246666699993511,Hit,1.323647201840989,johanv1,001,2025-11-13_16-36-05,
absent,0.3,SILENCE,NA,bab15.wav,nøgle_reversed.wav,sollys_reversed.wav,,,,,0,160,160,160,,,z,0.455625083999621,Correct Rejection,1.3655647456644895,johanv1,001,2025-11-13_16-36-05,
absent,0.4,SILENCE,NA,bab4.wav,engel_reversed.wav,sexet_reversed.wav,,,,,0,161,161,161,,,z,0.8557593330006057,Correct Rejection,0.648811405375661,johanv1,001,2025-11-13_16-36-05,
present,0.6,patent_compressed.wav,patent,bab21.wav,skønhed_reversed.wav,sindssyg_reversed.wav,,,,,0,162,162,162,,,m,0.4888495839995812,Hit,0.8316600443981116,johanv1,001,2025-11-13_16-36-05,
present,0.3,vinde_compressed.wav,vinde,bab9.wav,koldbrand_reversed.wav,tortur_reversed.wav,,,,,0,163,163,163,,,m,0.22013262500058772,Hit,0.8841697468757947,johanv1,001,2025-11-13_16-36-05,
present,0.6,slave_compressed.wav,slave,bab6.wav,skyldig_reversed.wav,papir_reversed.wav,,,,,0,164,164,164,,,m,0.22157616700042126,Hit,1.0923769886689811,johanv1,001,2025-11-13_16-36-05,
absent,0.2,SILENCE,NA,bab6.wav,redning_reversed.wav,fængsel_reversed.wav,,,,,0,165,165,165,,,z,1.1318380419997993,Correct Rejection,0.6136647982736474,johanv1,001,2025-11-13_16-36-05,
present,0.7,sindssyg_compressed.wav,sindssyg,bab15.wav,festlig_reversed.wav,traume_reversed.wav,,,,,0,166,166,166,,,m,0.27329979200021626,Hit,0.9418714768038939,johanv1,001,2025-11-13_16-36-05,
absent,0.6,SILENCE,NA,bab21.wav,offer_reversed.wav,fremskridt_reversed.wav,,,,,0,167,167,167,,,z,1.160084457999801,Correct Rejection,1.455450481991656,johanv1,001,2025-11-13_16-36-05,
absent,0.7,SILENCE,NA,bab6.wav,vandfald_reversed.wav,lyse_reversed.wav,,,,,0,168,168,168,,,z,2.5909636249998584,Correct Rejection,0.5577171286471084,johanv1,001,2025-11-13_16-36-05,
present,0.7,minder_compressed.wav,minder,bab8.wav,mave_reversed.wav,kage_reversed.wav,,,,,0,169,169,169,,,m,0.24155541699929017,Hit,1.3517340147401966,johanv1,001,2025-11-13_16-36-05,
present,0.7,ketchup_compressed.wav,ketchup,bab14.wav,bange_reversed.wav,kontor_reversed.wav,,,,,0,170,170,170,,,m,0.8231440420004219,Hit,0.7285358116296214,johanv1,001,2025-11-13_16-36-05,
present,0.7,giftig_compressed.wav,giftig,bab14.wav,feber_reversed.wav,dæmpet_reversed.wav,,,,,0,171,171,171,,,m,1.2747940000008384,Hit,0.9650421271507886,johanv1,001,2025-11-13_16-36-05,
absent,0.5,SILENCE,NA,bab20.wav,vandfald_reversed.wav,ørken_reversed.wav,,,,,0,172,172,172,,,z,1.394735457999559,Correct Rejection,0.5670926978196793,johanv1,001,2025-11-13_16-36-05,
present,0.7,misbrug_compressed.wav,misbrug,bab4.wav,hage_reversed.wav,vindue_reversed.wav,,,,,0,173,173,173,,,m,1.61428908400012,Hit,1.4684557720254976,johanv1,001,2025-11-13_16-36-05,
absent,0.2,SILENCE,NA,bab15.wav,taber_reversed.wav,luksus_reversed.wav,,,,,0,174,174,174,,,z,1.1551437919997625,Correct Rejection,0.8061471753652147,johanv1,001,2025-11-13_16-36-05,
absent,0.7,SILENCE,NA,bab15.wav,gave_reversed.wav,pude_reversed.wav,,,,,0,175,175,175,,,z,0.9673094159998072,Correct Rejection,1.1256929438275918,johanv1,001,2025-11-13_16-36-05,
absent,0.4,SILENCE,NA,bab10.wav,nonne_reversed.wav,sygdom_reversed.wav,,,,,0,176,176,176,,,z,1.3440210409999054,Correct Rejection,1.187339322305479,johanv1,001,2025-11-13_16-36-05,
absent,0.4,SILENCE,NA,bab6.wav,ørken_reversed.wav,fjendtlig_reversed.wav,,,,,0,177,177,177,,,z,0.5698427080005786,Correct Rejection,1.2637200166742888,johanv1,001,2025-11-13_16-36-05,
absent,0.4,SILENCE,NA,bab5.wav,blomstre_reversed.wav,plakat_reversed.wav,,,,,0,178,178,178,,,z,1.3152013750004699,Correct Rejection,0.8085527505042162,johanv1,001,2025-11-13_16-36-05,
present,0.4,bygning_compressed.wav,bygning,bab21.wav,bombe_reversed.wav,kæle_reversed.wav,,,,,0,179,179,179,,,z,1.87240649999967,Miss,0.7133716781862082,johanv1,001,2025-11-13_16-36-05,
absent,0.4,SILENCE,NA,bab8.wav,jubel_reversed.wav,fase_reversed.wav,,,,,0,180,180,180,,,z,1.1916920829999071,Correct Rejection,1.2242302229274054,johanv1,001,2025-11-13_16-36-05,
absent,0.6,SILENCE,NA,bab9.wav,albue_reversed.wav,magisk_reversed.wav,,,,,0,181,181,181,,,z,0.7839756670000497,Correct Rejection,1.4104165765741166,johanv1,001,2025-11-13_16-36-05,
present,0.6,djævel_compressed.wav,djævel,bab6.wav,krise_reversed.wav,leder_reversed.wav,,,,,0,182,182,182,,,m,0.8670463749995179,Hit,1.2580755350197532,johanv1,001,2025-11-13_16-36-05,
absent,0.6,SILENCE,NA,bab4.wav,museum_reversed.wav,luksus_reversed.wav,,,,,0,183,183,183,,,z,0.5694042499999341,Correct Rejection,0.9497087057173972,johanv1,001,2025-11-13_16-36-05,
present,0.1,skyldig_compressed.wav,skyldig,bab10.wav,rabies_reversed.wav,sygdom_reversed.wav,,,,,0,184,184,184,,,m,0.3960367919999044,Hit,0.5872534742395508,johanv1,001,2025-11-13_16-36-05,
present,0.5,ugle_compressed.wav,ugle,bab14.wav,redskab_reversed.wav,kage_reversed.wav,,,,,0,185,185,185,,,m,0.37085941700024705,Hit,0.8414522314333684,johanv1,001,2025-11-13_16-36-05,
absent,0.5,SILENCE,NA,bab4.wav,mave_reversed.wav,sandhed_reversed.wav,,,,,0,186,186,186,,,z,1.2953586670000732,Correct Rejection,0.6444311485931388,johanv1,001,2025-11-13_16-36-05,
present,0.7,frygtsom_compressed.wav,frygtsom,bab8.wav,sollys_reversed.wav,tumor_reversed.wav,,,,,0,187,187,187,,,m,1.8059415829993668,Hit,0.617199920565428,johanv1,001,2025-11-13_16-36-05,
absent,0.5,SILENCE,NA,bab9.wav,tortur_reversed.wav,kage_reversed.wav,,,,,0,188,188,188,,,z,1.3384522919996016,Correct Rejection,0.6384335416188313,johanv1,001,2025-11-13_16-36-05,
absent,0.2,SILENCE,NA,bab5.wav,sexet_reversed.wav,tortur_reversed.wav,,,,,0,189,189,189,,,z,0.8443767910002862,Correct Rejection,1.1480483831380925,johanv1,001,2025-11-13_16-36-05,
absent,0.1,SILENCE,NA,bab9.wav,rabies_reversed.wav,metal_reversed.wav,,,,,0,190,190,190,,,z,0.6963185840004371,Correct Rejection,0.9018744297686345,johanv1,001,2025-11-13_16-36-05,
absent,0.4,SILENCE,NA,bab15.wav,dæmpet_reversed.wav,selvmord_reversed.wav,,,,,0,191,191,191,,,z,1.2636082919998444,Correct Rejection,0.5163906301953132,johanv1,001,2025-11-13_16-36-05,
absent,0.1,SILENCE,NA,bab5.wav,kedel_reversed.wav,sexet_reversed.wav,,,,,0,192,192,192,,,z,0.6605866660001993,Correct Rejection,0.5812414404005751,johanv1,001,2025-11-13_16-36-05,
present,0.5,sejre_compressed.wav,sejre,bab21.wav,nonsens_reversed.wav,gave_reversed.wav,,,,,0,193,193,193,,,m,0.5474382499996864,Hit,1.329323170228756,johanv1,001,2025-11-13_16-36-05,
present,0.2,kvæles_compressed.wav,kvæles,bab6.wav,museum_reversed.wav,offer_reversed.wav,,,,,0,194,194,194,,,z,1.119260082999972,Miss,1.0451917483185142,johanv1,001,2025-11-13_16-36-05,
present,0.3,rigdom_compressed.wav,rigdom,bab10.wav,trofæ_reversed.wav,oprørt_reversed.wav,,,,,0,195,195,195,,,m,1.5371935839993967,Hit,0.5892119531804986,johanv1,001,2025-11-13_16-36-05,
present,0.2,skønhed_compressed.wav,skønhed,bab13.wav,nonne_reversed.wav,dæmon_reversed.wav,,,,,0,196,196,196,,,m,0.3693572080001104,Hit,1.401990608853175,johanv1,001,2025-11-13_16-36-05,
present,0.4,dollar_compressed.wav,dollar,bab5.wav,spænding_reversed.wav,ensom_reversed.wav,,,,,0,197,197,197,,,m,0.8697901249997813,Hit,0.527484929888091,johanv1,001,2025-11-13_16-36-05,
absent,0.5,SILENCE,NA,bab14.wav,drukne_reversed.wav,motor_reversed.wav,,,,,0,198,198,198,,,z,0.8909488330000386,Correct Rejection,1.1897560717497289,johanv1,001,2025-11-13_16-36-05,
absent,0.6,SILENCE,NA,bab21.wav,poesi_reversed.wav,sygdom_reversed.wav,,,,,0,199,199,199,,,z,1.0017927910002982,Correct Rejection,1.398626467841473,johanv1,001,2025-11-13_16-36-05,
absent,0.5,SILENCE,NA,bab4.wav,måned_reversed.wav,hånlig_reversed.wav,,,,,0,200,200,200,,,z,1.3594330840005568,Correct Rejection,0.8971004855725742,johanv1,001,2025-11-13_16-36-05,
present,0.5,genert_compressed.wav,genert,bab20.wav,gratis_reversed.wav,ønske_reversed.wav,,,,,0,201,201,201,,,m,0.27205304200015235,Hit,1.2144043220181198,johanv1,001,2025-11-13_16-36-05,
present,0.4,latter_compressed.wav,latter,bab6.wav,djævel_reversed.wav,mave_reversed.wav,,,,,0,202,202,202,,,m,0.7533838750005089,Hit,1.4350273087805192,johanv1,001,2025-11-13_16-36-05,
present,0.6,cirkus_compressed.wav,cirkus,bab15.wav,grimme_reversed.wav,lærer_reversed.wav,,,,,0,203,203,203,,,m,0.18586162500014325,Hit,0.9377482990201762,johanv1,001,2025-11-13_16-36-05,
absent,0.3,SILENCE,NA,bab8.wav,glæde_reversed.wav,pervers_reversed.wav,,,,,0,204,204,204,,,z,0.4383709169997019,Correct Rejection,1.0562805994453381,johanv1,001,2025-11-13_16-36-05,
present,0.7,nonsens_compressed.wav,nonsens,bab15.wav,drukne_reversed.wav,bombe_reversed.wav,,,,,0,205,205,205,,,z,1.9232662499998696,Miss,1.130211780792972,johanv1,001,2025-11-13_16-36-05,
absent,0.1,SILENCE,NA,bab4.wav,passion_reversed.wav,forpint_reversed.wav,,,,,0,206,206,206,,,z,1.7059313330000805,Correct Rejection,1.0572291965089318,johanv1,001,2025-11-13_16-36-05,
absent,0.2,SILENCE,NA,bab14.wav,forpint_reversed.wav,feber_reversed.wav,,,,,0,207,207,207,,,z,1.109549292000338,Correct Rejection,0.6828759571500299,johanv1,001,2025-11-13_16-36-05,
present,0.5,diamant_compressed.wav,diamant,bab13.wav,bombe_reversed.wav,vandal_reversed.wav,,,,,0,208,208,208,,,m,0.4193939169999794,Hit,0.7260766071017813,johanv1,001,2025-11-13_16-36-05,
absent,0.4,SILENCE,NA,bab6.wav,grusom_reversed.wav,bygning_reversed.wav,,,,,0,209,209,209,,,z,1.1634455409994189,Correct Rejection,1.082852092617224,johanv1,001,2025-11-13_16-36-05,
