trial_i,face_file,prime_file,prime_valence,babbling_file,mask1_file,mask2_file,main.thisN,response_key,rt,Participant ID,Session,date,word,pleasure,arousal,dominance,face_model_sex,facial_expression,true_face_valence
17,AM30NES.JPG,kiste_compressed.wav,negative,babble_80.wav,metal_reversed.wav,hader_reversed.wav,-1,5,5.032509088516235,50701,1,2025-11-28_11-12-15,kiste,29.024943,57.029478,46.258503,Male,Neutral,"3,58"
152,AF35NES.JPG,bryllup_compressed.wav,positive,babble_35.wav,pude_reversed.wav,lyse_reversed.wav,-1,4,1.5300710201263428,50701,1,2025-11-28_11-12-15,bryllup,88.662132,67.687075,75.736961,Female,Neutral,"3,69"
112,AF03NES.JPG,succes_compressed.wav,positive,babble_68.wav,fængsel_reversed.wav,rigdom_reversed.wav,-1,3,6.124786138534546,50701,1,2025-11-28_11-12-15,succes,93.99093,69.274376,78.117914,Female,Neutral,"3,78"
81,AM20ANS.JPG,boble_compressed.wav,neutral,babble_82.wav,tumor_reversed.wav,taber_reversed.wav,-1,3,2.201662063598633,50701,1,2025-11-28_11-12-15,boble,55.442177,44.671202,51.814059,Male,Angry,"2,90"
86,AM31HAS.JPG,latter_compressed.wav,positive,babble_44.wav,illoyal_reversed.wav,feber_reversed.wav,-1,9,0.2110309600830078,50701,1,2025-11-28_11-12-15,latter,95.804989,76.530612,73.129252,Male,Happy,"5,38"
32,AF17ANS.JPG,SILENCE,no-prime,babble_16.wav,rabies_reversed.wav,tilfreds_reversed.wav,-1,3,0.6985318660736084,50701,1,2025-11-28_11-12-15,SILENCE,,,,Female,Angry,"2,18"
63,AM16ANS.JPG,feber_compressed.wav,negative,babble_55.wav,banner_reversed.wav,skønhed_reversed.wav,0,6,1.3135569095611572,50701,1,2025-11-28_11-12-15,feber,31.292517,48.639456,39.909297,Male,Angry,"2,68"
111,AM25HAS.JPG,grimme_compressed.wav,negative,babble_17.wav,motor_reversed.wav,ketchup_reversed.wav,1,9,1.103429079055786,50701,1,2025-11-28_11-12-15,grimme,27.55102,60.997732,48.29932,Male,Happy,"5,90"
88,AM09NES.JPG,gave_compressed.wav,positive,babble_20.wav,skønhed_reversed.wav,smerte_reversed.wav,2,5,1.6771008968353271,50701,1,2025-11-28_11-12-15,gave,88.095238,69.614512,62.585034,Male,Neutral,"3,71"
166,AF13NES.JPG,hage_compressed.wav,neutral,babble_57.wav,banner_reversed.wav,viden_reversed.wav,3,5,0.0659031867980957,50701,1,2025-11-28_11-12-15,hage,59.977324,37.528345,59.637188,Female,Neutral,"3,89"
123,AF24ANS.JPG,grusom_compressed.wav,negative,babble_36.wav,humor_reversed.wav,kujon_reversed.wav,4,4,1.882611989974976,50701,1,2025-11-28_11-12-15,grusom,22.335601,64.399093,48.072562,Female,Angry,"2,95"
93,AM19ANS.JPG,flirte_compressed.wav,positive,babble_95.wav,metal_reversed.wav,baby_reversed.wav,5,5,0.7014710903167725,50701,1,2025-11-28_11-12-15,flirte,85.260771,78.344671,70.748299,Male,Angry,"2,95"
171,AM23HAS.JPG,væmmes_compressed.wav,negative,babble_35.wav,tilfreds_reversed.wav,mester_reversed.wav,6,8,0.1973559856414795,50701,1,2025-11-28_11-12-15,væmmes,27.777778,61.451247,49.206349,Male,Happy,"5,67"
187,AF05HAS.JPG,smerte_compressed.wav,negative,babble_88.wav,kærtegn_reversed.wav,utro_reversed.wav,7,8,0.8538370132446289,50701,1,2025-11-28_11-12-15,smerte,24.14966,73.696145,42.063492,Female,Happy,"5,78"
34,AF30NES.JPG,heldig_compressed.wav,positive,babble_7.wav,taxa_reversed.wav,gave_reversed.wav,8,4,0.975167989730835,50701,1,2025-11-28_11-12-15,heldig,92.630385,74.036281,68.594104,Female,Neutral,"3,86"
31,AM34HAS.JPG,SILENCE,no-prime,babble_85.wav,utro_reversed.wav,salat_reversed.wav,9,8,1.1326401233673096,50701,1,2025-11-28_11-12-15,SILENCE,,,,Male,Happy,"5,50"
14,AM12ANS.JPG,affald_compressed.wav,negative,babble_58.wav,ferie_reversed.wav,ensom_reversed.wav,10,4,0.6755831241607666,50701,1,2025-11-28_11-12-15,affald,30.272109,47.165533,59.410431,Male,Angry,"2,66"
106,AF01NES.JPG,kærtegn_compressed.wav,positive,babble_71.wav,jubel_reversed.wav,genert_reversed.wav,11,5,0.3993549346923828,50701,1,2025-11-28_11-12-15,kærtegn,88.888889,58.276644,66.099773,Female,Neutral,"3,81"
23,AM05NES.JPG,bifald_compressed.wav,positive,babble_84.wav,maling_reversed.wav,dæmpet_reversed.wav,12,3,1.273953914642334,50701,1,2025-11-28_11-12-15,bifald,85.034014,65.759637,73.469388,Male,Neutral,"3,53"
193,AM22HAS.JPG,intim_compressed.wav,positive,babble_95.wav,gade_reversed.wav,tortur_reversed.wav,13,7,0.3193438053131103,50701,1,2025-11-28_11-12-15,intim,86.281179,79.138322,66.439909,Male,Happy,"6,11"
197,AM11ANS.JPG,ferie_compressed.wav,positive,babble_26.wav,genstand_reversed.wav,sikker_reversed.wav,14,3,0.6541171073913574,50701,1,2025-11-28_11-12-15,ferie,92.517007,63.945578,77.097506,Male,Angry,"2,47"
75,AF17HAS.JPG,engel_compressed.wav,positive,babble_95.wav,dæmpet_reversed.wav,maling_reversed.wav,15,8,1.914557933807373,50701,1,2025-11-28_11-12-15,engel,85.37415,54.761905,56.349206,Female,Happy,"6,18"
53,AM17ANS.JPG,rædsel_compressed.wav,negative,babble_75.wav,morder_reversed.wav,bygning_reversed.wav,16,5,2.78919005393982,50701,1,2025-11-28_11-12-15,rædsel,31.292517,81.746032,52.494331,Male,Angry,"1,68"
118,AF04ANS.JPG,brænde_compressed.wav,negative,babble_48.wav,misbrug_reversed.wav,lærer_reversed.wav,17,4,0.4952600002288818,50701,1,2025-11-28_11-12-15,brænde,30.952381,70.521542,47.845805,Female,Angry,"2,47"
120,AM28HAS.JPG,SILENCE,no-prime,babble_19.wav,ferie_reversed.wav,krise_reversed.wav,18,8,0.3102889060974121,50701,1,2025-11-28_11-12-15,SILENCE,,,,Male,Happy,"5,55"
133,AF35ANS.JPG,sikker_compressed.wav,positive,babble_1.wav,lyse_reversed.wav,hjerte_reversed.wav,19,4,0.8514330387115479,50701,1,2025-11-28_11-12-15,sikker,85.827664,35.600907,67.23356,Female,Angry,"2,76"
173,AF23ANS.JPG,fængsel_compressed.wav,negative,babble_17.wav,viden_reversed.wav,taxa_reversed.wav,20,3,0.5463409423828125,50701,1,2025-11-28_11-12-15,fængsel,23.24263,64.62585,47.619048,Female,Angry,"2,54"
65,AM19NES.JPG,væmmes_compressed.wav,negative,babble_38.wav,himlen_reversed.wav,tilfreds_reversed.wav,21,5,0.2413680553436279,50701,1,2025-11-28_11-12-15,væmmes,27.777778,61.451247,49.206349,Male,Neutral,"3,69"
163,AF32ANS.JPG,vindue_compressed.wav,neutral,babble_23.wav,misbrug_reversed.wav,baby_reversed.wav,22,3,0.3531498908996582,50701,1,2025-11-28_11-12-15,vindue,67.006803,45.011338,55.668934,Female,Angry,"3,31"
38,AF29HAS.JPG,SILENCE,no-prime,babble_54.wav,tortur_reversed.wav,nonne_reversed.wav,23,9,0.4618439674377441,50701,1,2025-11-28_11-12-15,SILENCE,,,,Female,Happy,"5,48"
144,AF31NES.JPG,vandal_compressed.wav,negative,babble_25.wav,ørken_reversed.wav,nedbrud_reversed.wav,24,6,0.9548850059509276,50701,1,2025-11-28_11-12-15,vandal,30.725624,72.562358,44.331066,Female,Neutral,"4,12"
181,AM34ANS.JPG,feber_compressed.wav,negative,babble_44.wav,pervers_reversed.wav,luksus_reversed.wav,25,4,1.24580979347229,50701,1,2025-11-28_11-12-15,feber,31.292517,48.639456,39.909297,Male,Angry,"2,69"
26,AM10NES.JPG,rotte_compressed.wav,negative,babble_8.wav,måned_reversed.wav,trofæ_reversed.wav,26,5,0.2690780162811279,50701,1,2025-11-28_11-12-15,rotte,34.240363,56.122449,51.587302,Male,Neutral,"3,89"
49,AF19NES.JPG,SILENCE,no-prime,babble_4.wav,djævel_reversed.wav,redning_reversed.wav,27,5,0.4893219470977783,50701,1,2025-11-28_11-12-15,SILENCE,,,,Female,Neutral,"3,64"
100,AM29ANS.JPG,ønske_compressed.wav,positive,babble_53.wav,sandhed_reversed.wav,mave_reversed.wav,28,1,0.4091942310333252,50701,1,2025-11-28_11-12-15,ønske,87.188209,83.333333,73.582766,Male,Angry,"1,67"
110,AF12NES.JPG,borddug_compressed.wav,neutral,babble_85.wav,glæde_reversed.wav,maling_reversed.wav,29,5,0.4246909618377685,50701,1,2025-11-28_11-12-15,borddug,55.895692,37.07483,56.122449,Female,Neutral,"3,47"
170,AM12HAS.JPG,baby_compressed.wav,positive,babble_6.wav,skammel_reversed.wav,oprørt_reversed.wav,30,9,0.2564959526062011,50701,1,2025-11-28_11-12-15,baby,93.197279,62.698413,56.689342,Male,Happy,"5,34"
121,AF06ANS.JPG,genert_compressed.wav,neutral,babble_36.wav,genert_reversed.wav,venlig_reversed.wav,31,2,0.5850629806518555,50701,1,2025-11-28_11-12-15,genert,52.60771,42.743764,39.002268,Female,Angry,"2,67"
108,AM17HAS.JPG,beundret_compressed.wav,positive,babble_83.wav,opstemt_reversed.wav,kærtegn_reversed.wav,32,9,0.6133759021759033,50701,1,2025-11-28_11-12-15,beundret,87.755102,69.274376,85.37415,Male,Happy,"5,39"
113,AM11HAS.JPG,spænding_compressed.wav,positive,babble_78.wav,regnbue_reversed.wav,kage_reversed.wav,33,9,0.1532959938049316,50701,1,2025-11-28_11-12-15,spænding,91.269841,90.929705,74.14966,Male,Happy,"5,82"
60,AM14NES.JPG,tilfreds_compressed.wav,positive,babble_79.wav,trussel_reversed.wav,accept_reversed.wav,34,6,0.8706250190734863,50701,1,2025-11-28_11-12-15,tilfreds,90.022676,56.00907,69.614512,Male,Neutral,"3,66"
175,AF33ANS.JPG,SILENCE,no-prime,babble_1.wav,beskidt_reversed.wav,kage_reversed.wav,35,1,0.7830479145050049,50701,1,2025-11-28_11-12-15,SILENCE,,,,Female,Angry,"3,55"
137,AF03HAS.JPG,oprør_compressed.wav,negative,babble_43.wav,rådden_reversed.wav,glæde_reversed.wav,36,6,0.5827229022979736,50701,1,2025-11-28_11-12-15,oprør,33.560091,72.44898,47.39229,Female,Happy,"5,09"
158,AM20NES.JPG,drukne_compressed.wav,negative,babble_81.wav,kærtegn_reversed.wav,lampe_reversed.wav,37,2,0.9795401096343994,50701,1,2025-11-28_11-12-15,drukne,21.768707,74.489796,32.426304,Male,Neutral,"3,00"
134,AM04HAS.JPG,forpint_compressed.wav,negative,babble_68.wav,metal_reversed.wav,baby_reversed.wav,38,9,0.3899061679840088,50701,1,2025-11-28_11-12-15,forpint,24.036281,60.430839,39.115646,Male,Happy,"5,80"
174,AF13ANS.JPG,SILENCE,no-prime,babble_82.wav,vandal_reversed.wav,kiste_reversed.wav,39,4,0.95349383354187,50701,1,2025-11-28_11-12-15,SILENCE,,,,Female,Angry,"2,29"
114,AF26HAS.JPG,skønhed_compressed.wav,positive,babble_74.wav,pervers_reversed.wav,talent_reversed.wav,40,8,0.381303071975708,50701,1,2025-11-28_11-12-15,skønhed,88.662132,56.122449,62.698413,Female,Happy,"5,92"
46,AM10ANS.JPG,udskud_compressed.wav,negative,babble_15.wav,djævel_reversed.wav,lærer_reversed.wav,41,6,2.1444339752197266,50701,1,2025-11-28_11-12-15,udskud,27.55102,55.328798,48.29932,Male,Angry,"1,87"
11,AF02NES.JPG,engel_compressed.wav,positive,babble_29.wav,taber_reversed.wav,kugle_reversed.wav,42,4,0.6403050422668457,50701,1,2025-11-28_11-12-15,engel,85.37415,54.761905,56.349206,Female,Neutral,"3,69"
19,AF08NES.JPG,hage_compressed.wav,neutral,babble_17.wav,offer_reversed.wav,banner_reversed.wav,43,4,0.5984971523284912,50701,1,2025-11-28_11-12-15,hage,59.977324,37.528345,59.637188,Female,Neutral,"3,56"
182,AF21HAS.JPG,forår_compressed.wav,positive,babble_69.wav,sæde_reversed.wav,ferie_reversed.wav,44,8,0.6017920970916748,50701,1,2025-11-28_11-12-15,forår,87.981859,64.285714,70.975057,Female,Happy,"5,77"
200,AM29NES.JPG,oprør_compressed.wav,negative,babble_24.wav,kontor_reversed.wav,spise_reversed.wav,45,5,0.3651390075683594,50701,1,2025-11-28_11-12-15,oprør,33.560091,72.44898,47.39229,Male,Neutral,"3,74"
117,AM09HAS.JPG,afvist_compressed.wav,negative,babble_18.wav,passion_reversed.wav,engel_reversed.wav,46,9,0.4814910888671875,50701,1,2025-11-28_11-12-15,afvist,17.006803,72.222222,30.839002,Male,Happy,"5,67"
107,AF21NES.JPG,SILENCE,no-prime,babble_0.wav,ketchup_reversed.wav,konge_reversed.wav,47,4,0.4004099369049072,50701,1,2025-11-28_11-12-15,SILENCE,,,,Female,Neutral,"3,67"
73,AF02ANS.JPG,kæle_compressed.wav,positive,babble_77.wav,banner_reversed.wav,kage_reversed.wav,48,5,0.4171619415283203,50701,1,2025-11-28_11-12-15,kæle,87.528345,49.886621,66.326531,Female,Angry,"2,67"
30,AF01HAS.JPG,SILENCE,no-prime,babble_43.wav,fase_reversed.wav,oprør_reversed.wav,49,7,0.6114420890808105,50701,1,2025-11-28_11-12-15,SILENCE,,,,Female,Happy,"5,81"
156,AF10NES.JPG,SILENCE,no-prime,babble_83.wav,cirkel_reversed.wav,spænding_reversed.wav,50,3,0.3673701286315918,50701,1,2025-11-28_11-12-15,SILENCE,,,,Female,Neutral,"3,18"
168,AM27ANS.JPG,SILENCE,no-prime,babble_94.wav,tilfreds_reversed.wav,metal_reversed.wav,51,4,0.1139240264892578,50701,1,2025-11-28_11-12-15,SILENCE,,,,Male,Angry,"3,00"
147,AF14HAS.JPG,rædsel_compressed.wav,negative,babble_82.wav,affald_reversed.wav,sexet_reversed.wav,52,7,0.2256369590759277,50701,1,2025-11-28_11-12-15,rædsel,31.292517,81.746032,52.494331,Female,Happy,"5,68"
150,AM11NES.JPG,accept_compressed.wav,positive,babble_40.wav,lyse_reversed.wav,utro_reversed.wav,53,5,0.3101718425750732,50701,1,2025-11-28_11-12-15,accept,90.47619,61.22449,75.283447,Male,Neutral,"3,92"
58,AM23ANS.JPG,rigdom_compressed.wav,positive,babble_79.wav,kujon_reversed.wav,vinde_reversed.wav,54,5,1.0678648948669434,50701,1,2025-11-28_11-12-15,rigdom,87.301587,69.954649,76.417234,Male,Angry,"2,49"
122,AM15ANS.JPG,brænde_compressed.wav,negative,babble_68.wav,sejre_reversed.wav,lærer_reversed.wav,55,5,0.4929280281066894,50701,1,2025-11-28_11-12-15,brænde,30.952381,70.521542,47.845805,Male,Angry,"2,08"
12,AF25ANS.JPG,bygning_compressed.wav,neutral,babble_31.wav,redning_reversed.wav,viden_reversed.wav,56,4,0.4448170661926269,50701,1,2025-11-28_11-12-15,bygning,59.977324,44.444444,59.52381,Female,Angry,"2,26"
142,AF10HAS.JPG,hage_compressed.wav,neutral,babble_72.wav,misbrug_reversed.wav,slagtning_reversed.wav,57,6,0.9177849292755128,50701,1,2025-11-28_11-12-15,hage,59.977324,37.528345,59.637188,Female,Happy,"5,34"
167,AF30ANS.JPG,humor_compressed.wav,positive,babble_20.wav,luksus_reversed.wav,gidsel_reversed.wav,58,4,1.0572841167449951,50701,1,2025-11-28_11-12-15,humor,97.052154,62.358277,68.93424,Female,Angry,"2,79"
9,AF20ANS.JPG,selvmord_compressed.wav,negative,babble_46.wav,fremskridt_reversed.wav,talent_reversed.wav,59,3,0.2477340698242187,50701,1,2025-11-28_11-12-15,selvmord,14.172336,64.965986,40.589569,Female,Angry,"2,28"
48,AF08HAS.JPG,gade_compressed.wav,neutral,babble_66.wav,vandfald_reversed.wav,lampe_reversed.wav,60,7,0.2098171710968017,50701,1,2025-11-28_11-12-15,gade,59.183673,38.435374,54.535147,Female,Happy,"5,29"
79,AM18ANS.JPG,papir_compressed.wav,neutral,babble_43.wav,diamant_reversed.wav,redskab_reversed.wav,61,5,0.7609100341796875,50701,1,2025-11-28_11-12-15,papir,58.956916,28.344671,50.680272,Male,Angry,"1,87"
179,AF23HAS.JPG,SILENCE,no-prime,babble_66.wav,himlen_reversed.wav,baby_reversed.wav,62,7,0.2902350425720215,50701,1,2025-11-28_11-12-15,SILENCE,,,,Female,Happy,"5,36"
56,AM21ANS.JPG,hage_compressed.wav,neutral,babble_67.wav,fiasko_reversed.wav,utro_reversed.wav,63,4,0.2791059017181396,50701,1,2025-11-28_11-12-15,hage,59.977324,37.528345,59.637188,Male,Angry,"2,69"
188,AM28NES.JPG,fængsel_compressed.wav,negative,babble_73.wav,himmel_reversed.wav,fængsel_reversed.wav,64,5,0.0563189983367919,50701,1,2025-11-28_11-12-15,fængsel,23.24263,64.62585,47.619048,Male,Neutral,"3,52"
146,AF22HAS.JPG,leder_compressed.wav,positive,babble_80.wav,kedel_reversed.wav,grimme_reversed.wav,65,7,0.3133089542388916,50701,1,2025-11-28_11-12-15,leder,86.507937,71.088435,89.342404,Female,Happy,"5,92"
194,AM06HAS.JPG,heldig_compressed.wav,positive,babble_72.wav,patent_reversed.wav,hånlig_reversed.wav,66,9,0.2830309867858886,50701,1,2025-11-28_11-12-15,heldig,92.630385,74.036281,68.594104,Male,Happy,"6,06"
190,AM01ANS.JPG,ønske_compressed.wav,positive,babble_9.wav,illoyal_reversed.wav,statue_reversed.wav,67,4,0.2644548416137695,50701,1,2025-11-28_11-12-15,ønske,87.188209,83.333333,73.582766,Male,Angry,"2,83"
176,AM02NES.JPG,viden_compressed.wav,positive,babble_49.wav,forpint_reversed.wav,hage_reversed.wav,68,4,1.078561782836914,50701,1,2025-11-28_11-12-15,viden,85.941043,67.120181,76.870748,Male,Neutral,"3,56"
135,AF10ANS.JPG,tortur_compressed.wav,negative,babble_90.wav,kæle_reversed.wav,passion_reversed.wav,69,2,0.4456679821014404,50701,1,2025-11-28_11-12-15,tortur,17.687075,69.160998,37.755102,Female,Angry,"2,26"
189,AF34ANS.JPG,udskud_compressed.wav,negative,babble_48.wav,skønhed_reversed.wav,trussel_reversed.wav,70,2,0.443580150604248,50701,1,2025-11-28_11-12-15,udskud,27.55102,55.328798,48.29932,Female,Angry,"3,12"
199,AM05HAS.JPG,enhed_compressed.wav,neutral,babble_37.wav,frygtsom_reversed.wav,jubel_reversed.wav,71,8,0.301199197769165,50701,1,2025-11-28_11-12-15,enhed,63.378685,42.517007,57.936508,Male,Happy,"5,97"
44,AF16NES.JPG,hader_compressed.wav,negative,babble_73.wav,fase_reversed.wav,kiste_reversed.wav,72,5,1.1374351978302002,50701,1,2025-11-28_11-12-15,hader,24.036281,78.798186,57.256236,Female,Neutral,"3,41"
155,AM26NES.JPG,taber_compressed.wav,negative,babble_75.wav,latter_reversed.wav,sejre_reversed.wav,73,5,0.7332539558410645,50701,1,2025-11-28_11-12-15,taber,25.510204,56.122449,34.240363,Male,Neutral,"3,74"
72,AM18NES.JPG,kærtegn_compressed.wav,positive,babble_55.wav,nedbrud_reversed.wav,varme_reversed.wav,74,5,0.3737759590148926,50701,1,2025-11-28_11-12-15,kærtegn,88.888889,58.276644,66.099773,Male,Neutral,"3,55"
54,AM01NES.JPG,tortur_compressed.wav,negative,babble_19.wav,sexet_reversed.wav,fedme_reversed.wav,75,5,0.4060189723968506,50701,1,2025-11-28_11-12-15,tortur,17.687075,69.160998,37.755102,Male,Neutral,"3,91"
89,AM03ANS.JPG,humor_compressed.wav,positive,babble_0.wav,nonne_reversed.wav,redskab_reversed.wav,76,4,0.3456950187683105,50701,1,2025-11-28_11-12-15,humor,97.052154,62.358277,68.93424,Male,Angry,"1,64"
69,AF31HAS.JPG,afskyr_compressed.wav,negative,babble_48.wav,væmmes_reversed.wav,vinde_reversed.wav,77,9,1.2501039505004885,50701,1,2025-11-28_11-12-15,afskyr,24.603175,68.707483,66.099773,Female,Happy,"5,60"
140,AM18HAS.JPG,forår_compressed.wav,positive,babble_67.wav,marked_reversed.wav,heldig_reversed.wav,78,8,0.4800341129302978,50701,1,2025-11-28_11-12-15,forår,87.981859,64.285714,70.975057,Male,Happy,"5,26"
3,AF24HAS.JPG,avis_compressed.wav,neutral,babble_69.wav,selvmord_reversed.wav,hage_reversed.wav,79,4,0.5429518222808838,50701,1,2025-11-28_11-12-15,avis,58.276644,45.918367,59.637188,Female,Happy,"6,18"
92,AF07NES.JPG,misbrug_compressed.wav,negative,babble_23.wav,slave_reversed.wav,sikker_reversed.wav,80,4,0.6801729202270508,50701,1,2025-11-28_11-12-15,misbrug,20.408163,77.437642,41.836735,Female,Neutral,"3,94"
149,AM02ANS.JPG,SILENCE,no-prime,babble_92.wav,gratis_reversed.wav,ledning_reversed.wav,81,3,0.2402820587158203,50701,1,2025-11-28_11-12-15,SILENCE,,,,Male,Angry,"2,44"
22,AF06HAS.JPG,banner_compressed.wav,neutral,babble_58.wav,forkert_reversed.wav,fedme_reversed.wav,82,3,1.0777058601379397,50701,1,2025-11-28_11-12-15,banner,61.22449,43.424036,54.421769,Female,Happy,"6,06"
55,AF17NES.JPG,SILENCE,no-prime,babble_45.wav,affald_reversed.wav,ankel_reversed.wav,83,5,0.9000699520111084,50701,1,2025-11-28_11-12-15,SILENCE,,,,Female,Neutral,"3,84"
103,AM04ANS.JPG,ønske_compressed.wav,positive,babble_41.wav,slave_reversed.wav,cirkel_reversed.wav,84,5,0.360724925994873,50701,1,2025-11-28_11-12-15,ønske,87.188209,83.333333,73.582766,Male,Angry,"2,44"
132,AM04NES.JPG,penge_compressed.wav,positive,babble_1.wav,hjerte_reversed.wav,blodig_reversed.wav,85,5,0.2566289901733398,50701,1,2025-11-28_11-12-15,penge,86.054422,64.62585,70.861678,Male,Neutral,"4,06"
15,AM30HAS.JPG,violin_compressed.wav,neutral,babble_21.wav,sollys_reversed.wav,skyldig_reversed.wav,86,6,0.3591840267181396,50701,1,2025-11-28_11-12-15,violin,61.564626,39.569161,58.730159,Male,Happy,"5,31"
39,AF04HAS.JPG,kiste_compressed.wav,negative,babble_70.wav,redning_reversed.wav,nonne_reversed.wav,87,8,0.2610161304473877,50701,1,2025-11-28_11-12-15,kiste,29.024943,57.029478,46.258503,Female,Happy,"5,56"
85,AM01HAS.JPG,natur_compressed.wav,positive,babble_87.wav,affald_reversed.wav,papir_reversed.wav,88,8,0.2993860244750976,50701,1,2025-11-28_11-12-15,natur,86.734694,49.546485,56.122449,Male,Happy,"5,64"
165,AF19ANS.JPG,poesi_compressed.wav,neutral,babble_54.wav,tumor_reversed.wav,sikker_reversed.wav,89,4,0.3677291870117187,50701,1,2025-11-28_11-12-15,poesi,66.439909,45.351474,60.204082,Female,Angry,"2,79"
101,AM32HAS.JPG,drukne_compressed.wav,negative,babble_45.wav,djævel_reversed.wav,accept_reversed.wav,90,9,0.324970006942749,50701,1,2025-11-28_11-12-15,drukne,21.768707,74.489796,32.426304,Male,Happy,"5,79"
154,AM28ANS.JPG,tumor_compressed.wav,negative,babble_36.wav,stjerne_reversed.wav,nonne_reversed.wav,91,3,0.3293218612670898,50701,1,2025-11-28_11-12-15,tumor,26.75737,73.809524,40.589569,Male,Angry,"2,21"
162,AF07ANS.JPG,ørken_compressed.wav,negative,babble_60.wav,kærtegn_reversed.wav,nedbrud_reversed.wav,92,4,1.2173008918762207,50701,1,2025-11-28_11-12-15,ørken,27.777778,62.358277,42.743764,Female,Angry,"2,44"
119,AM22ANS.JPG,ørken_compressed.wav,negative,babble_52.wav,blodig_reversed.wav,stjerne_reversed.wav,93,3,0.4495360851287842,50701,1,2025-11-28_11-12-15,ørken,27.777778,62.358277,42.743764,Male,Angry,"2,31"
105,AF28NES.JPG,kysse_compressed.wav,positive,babble_4.wav,bange_reversed.wav,poesi_reversed.wav,94,3,0.6667499542236328,50701,1,2025-11-28_11-12-15,kysse,93.650794,82.993197,78.571429,Female,Neutral,"3,81"
148,AF01ANS.JPG,SILENCE,no-prime,babble_50.wav,bygning_reversed.wav,fremskridt_reversed.wav,95,4,0.2883520126342773,50701,1,2025-11-28_11-12-15,SILENCE,,,,Female,Angry,"2,53"
180,AM19HAS.JPG,respekt_compressed.wav,positive,babble_20.wav,nøgle_reversed.wav,taber_reversed.wav,96,7,0.7617521286010742,50701,1,2025-11-28_11-12-15,respekt,86.621315,58.843537,78.117914,Male,Happy,"5,26"
151,AM24HAS.JPG,koldbrand_compressed.wav,negative,babble_45.wav,fremskridt_reversed.wav,morder_reversed.wav,97,8,0.4986300468444824,50701,1,2025-11-28_11-12-15,koldbrand,25.85034,64.62585,38.095238,Male,Happy,"5,77"
97,AF18HAS.JPG,banner_compressed.wav,neutral,babble_53.wav,ugle_reversed.wav,sindssyg_reversed.wav,98,8,0.1808397769927978,50701,1,2025-11-28_11-12-15,banner,61.22449,43.424036,54.421769,Female,Happy,"5,97"
33,AM15HAS.JPG,tønde_compressed.wav,neutral,babble_15.wav,natur_reversed.wav,venlig_reversed.wav,99,8,0.5269279479980469,50701,1,2025-11-28_11-12-15,tønde,57.256236,38.095238,55.442177,Male,Happy,"5,18"
177,AF19HAS.JPG,gaffel_compressed.wav,neutral,babble_13.wav,ankel_reversed.wav,genert_reversed.wav,100,9,1.0957369804382324,50701,1,2025-11-28_11-12-15,gaffel,59.977324,44.897959,65.079365,Female,Happy,"6,10"
28,AM07NES.JPG,ensom_compressed.wav,negative,babble_65.wav,humor_reversed.wav,museum_reversed.wav,101,5,1.1011250019073486,50701,1,2025-11-28_11-12-15,ensom,24.603175,51.133787,33.446712,Male,Neutral,"3,57"
153,AF29NES.JPG,syndig_compressed.wav,negative,babble_21.wav,utro_reversed.wav,sollys_reversed.wav,102,5,0.4860010147094726,50701,1,2025-11-28_11-12-15,syndig,33.219955,71.315193,48.072562,Female,Neutral,"3,83"
68,AM07HAS.JPG,skuffe_compressed.wav,negative,babble_11.wav,putte_reversed.wav,plakat_reversed.wav,103,9,0.9484999179840088,50701,1,2025-11-28_11-12-15,skuffe,27.097506,55.782313,37.301587,Male,Happy,"6,03"
40,AM13NES.JPG,SILENCE,no-prime,babble_8.wav,ketchup_reversed.wav,utro_reversed.wav,104,5,0.4631669521331787,50701,1,2025-11-28_11-12-15,SILENCE,,,,Male,Neutral,"4,03"
98,AM14HAS.JPG,baby_compressed.wav,positive,babble_24.wav,fedme_reversed.wav,lampe_reversed.wav,105,7,0.8182239532470703,50701,1,2025-11-28_11-12-15,baby,93.197279,62.698413,56.689342,Male,Happy,"5,03"
125,AM35NES.JPG,SILENCE,no-prime,babble_67.wav,kujon_reversed.wav,oprørt_reversed.wav,106,5,0.3323791027069092,50701,1,2025-11-28_11-12-15,SILENCE,,,,Male,Neutral,"3,95"
35,AM24ANS.JPG,grimme_compressed.wav,negative,babble_42.wav,blomstre_reversed.wav,ønske_reversed.wav,107,3,0.3444910049438476,50701,1,2025-11-28_11-12-15,grimme,27.55102,60.997732,48.29932,Male,Angry,"2,64"
45,AF20HAS.JPG,himlen_compressed.wav,positive,babble_24.wav,marked_reversed.wav,kiste_reversed.wav,108,8,0.6695971488952637,50701,1,2025-11-28_11-12-15,himlen,82.76644,63.605442,69.727891,Female,Happy,"5,69"
76,AM12NES.JPG,beundret_compressed.wav,positive,babble_2.wav,taxa_reversed.wav,måned_reversed.wav,109,4,0.3231439590454101,50701,1,2025-11-28_11-12-15,beundret,87.755102,69.274376,85.37415,Male,Neutral,"3,87"
160,AM08HAS.JPG,stjerne_compressed.wav,positive,babble_25.wav,djævel_reversed.wav,taber_reversed.wav,110,8,0.311568021774292,50701,1,2025-11-28_11-12-15,stjerne,82.426304,66.099773,53.061224,Male,Happy,"5,86"
66,AF13HAS.JPG,vinde_compressed.wav,positive,babble_98.wav,tumor_reversed.wav,opstemt_reversed.wav,111,8,0.5089890956878662,50701,1,2025-11-28_11-12-15,vinde,95.011338,87.528345,83.786848,Female,Happy,"5,66"
13,AF15ANS.JPG,afvist_compressed.wav,negative,babble_36.wav,skyldig_reversed.wav,modgang_reversed.wav,112,3,0.2865760326385498,50701,1,2025-11-28_11-12-15,afvist,17.006803,72.222222,30.839002,Female,Angry,"2,53"
8,AM21HAS.JPG,forår_compressed.wav,positive,babble_30.wav,dæmpet_reversed.wav,ønske_reversed.wav,113,7,0.3479089736938476,50701,1,2025-11-28_11-12-15,forår,87.981859,64.285714,70.975057,Male,Happy,"5,69"
102,AF30HAS.JPG,ledning_compressed.wav,neutral,babble_3.wav,illoyal_reversed.wav,skade_reversed.wav,114,8,0.5307340621948242,50701,1,2025-11-28_11-12-15,ledning,57.823129,40.136054,56.689342,Female,Happy,"5,80"
198,AF34HAS.JPG,kvæles_compressed.wav,negative,babble_10.wav,rigdom_reversed.wav,slave_reversed.wav,115,8,0.5716259479522705,50701,1,2025-11-28_11-12-15,kvæles,17.687075,68.367347,39.002268,Female,Happy,"5,98"
62,AF16ANS.JPG,djævel_compressed.wav,negative,babble_69.wav,tortur_reversed.wav,skønhed_reversed.wav,116,4,0.4035518169403076,50701,1,2025-11-28_11-12-15,djævel,25.056689,68.820862,60.657596,Female,Angry,"1,95"
37,AM32NES.JPG,sexet_compressed.wav,positive,babble_85.wav,bange_reversed.wav,accept_reversed.wav,117,5,0.3033931255340576,50701,1,2025-11-28_11-12-15,sexet,90.929705,83.446712,77.324263,Male,Neutral,"3,29"
42,AM15NES.JPG,SILENCE,no-prime,babble_93.wav,banner_reversed.wav,kærtegn_reversed.wav,118,4,0.2870571613311767,50701,1,2025-11-28_11-12-15,SILENCE,,,,Male,Neutral,"3,59"
47,AM07ANS.JPG,giftig_compressed.wav,negative,babble_22.wav,oprør_reversed.wav,dæmon_reversed.wav,119,2,0.2636399269104004,50701,1,2025-11-28_11-12-15,giftig,23.809524,72.562358,50.113379,Male,Angry,"2,14"
24,AF15NES.JPG,museum_compressed.wav,neutral,babble_21.wav,varme_reversed.wav,sandhed_reversed.wav,120,2,0.0512299537658691,50701,1,2025-11-28_11-12-15,museum,62.811791,40.816327,60.31746,Female,Neutral,"3,37"
104,AF32NES.JPG,tilfreds_compressed.wav,positive,babble_15.wav,pervers_reversed.wav,sollys_reversed.wav,121,5,0.7365210056304932,50701,1,2025-11-28_11-12-15,tilfreds,90.022676,56.00907,69.614512,Female,Neutral,"3,79"
61,AM29HAS.JPG,engel_compressed.wav,positive,babble_74.wav,gidsel_reversed.wav,fjendtlig_reversed.wav,122,7,0.2799680233001709,50701,1,2025-11-28_11-12-15,engel,85.37415,54.761905,56.349206,Male,Happy,"5,45"
96,AF28HAS.JPG,ugle_compressed.wav,neutral,babble_0.wav,regnbue_reversed.wav,vandal_reversed.wav,123,8,0.2940890789031982,50701,1,2025-11-28_11-12-15,ugle,65.759637,45.124717,65.986395,Female,Happy,"5,36"
191,AM21NES.JPG,frihed_compressed.wav,positive,babble_87.wav,humor_reversed.wav,skammel_reversed.wav,124,3,0.3765261173248291,50701,1,2025-11-28_11-12-15,frihed,90.47619,63.492063,71.315193,Male,Neutral,"3,54"
36,AF25NES.JPG,cirkel_compressed.wav,neutral,babble_86.wav,vandal_reversed.wav,passion_reversed.wav,125,5,0.342026948928833,50701,1,2025-11-28_11-12-15,cirkel,64.285714,43.764172,57.029478,Female,Neutral,"3,92"
10,AM03HAS.JPG,SILENCE,no-prime,babble_83.wav,offer_reversed.wav,salat_reversed.wav,126,6,1.1232728958129885,50701,1,2025-11-28_11-12-15,SILENCE,,,,Male,Happy,"5,17"
74,AM34NES.JPG,tilfreds_compressed.wav,positive,babble_81.wav,latter_reversed.wav,frygtsom_reversed.wav,127,4,0.3498799800872803,50701,1,2025-11-28_11-12-15,tilfreds,90.022676,56.00907,69.614512,Male,Neutral,"3,64"
99,AM31ANS.JPG,forpint_compressed.wav,negative,babble_37.wav,baby_reversed.wav,metal_reversed.wav,128,3,0.7727851867675781,50701,1,2025-11-28_11-12-15,forpint,24.036281,60.430839,39.115646,Male,Angry,"2,36"
64,AF02HAS.JPG,regnbue_compressed.wav,positive,babble_49.wav,skønhed_reversed.wav,blomstre_reversed.wav,129,9,0.5497989654541016,50701,1,2025-11-28_11-12-15,regnbue,92.290249,52.60771,53.514739,Female,Happy,"6,08"
127,AF15HAS.JPG,finger_compressed.wav,neutral,babble_4.wav,latter_reversed.wav,skammel_reversed.wav,130,8,0.2820019721984863,50701,1,2025-11-28_11-12-15,finger,59.977324,42.857143,57.256236,Female,Happy,"5,71"
7,AM24NES.JPG,nonsens_compressed.wav,neutral,babble_43.wav,pervers_reversed.wav,genstand_reversed.wav,131,4,1.0522739887237549,50701,1,2025-11-28_11-12-15,nonsens,52.267574,47.278912,55.555556,Male,Neutral,"3,79"
29,AM35HAS.JPG,SILENCE,no-prime,babble_20.wav,selvmord_reversed.wav,rabies_reversed.wav,132,4,1.0178000926971436,50701,1,2025-11-28_11-12-15,SILENCE,,,,Male,Happy,"5,57"
115,AM14ANS.JPG,SILENCE,no-prime,babble_52.wav,humor_reversed.wav,misbrug_reversed.wav,133,4,0.7359511852264404,50701,1,2025-11-28_11-12-15,SILENCE,,,,Male,Angry,"2,50"
161,AM30ANS.JPG,skyldig_compressed.wav,negative,babble_97.wav,magisk_reversed.wav,viden_reversed.wav,134,4,0.3545138835906982,50701,1,2025-11-28_11-12-15,skyldig,29.818594,68.480726,35.034014,Male,Angry,"2,67"
77,AF14NES.JPG,papir_compressed.wav,neutral,babble_54.wav,accept_reversed.wav,skammel_reversed.wav,135,4,0.3465142250061035,50701,1,2025-11-28_11-12-15,papir,58.956916,28.344671,50.680272,Female,Neutral,"3,29"
2,AM06NES.JPG,kiste_compressed.wav,negative,babble_30.wav,natur_reversed.wav,gaffel_reversed.wav,136,4,0.2596008777618408,50701,1,2025-11-28_11-12-15,kiste,29.024943,57.029478,46.258503,Male,Neutral,"3,83"
126,AF08ANS.JPG,pude_compressed.wav,positive,babble_41.wav,leder_reversed.wav,forfald_reversed.wav,137,4,0.3230299949645996,50701,1,2025-11-28_11-12-15,pude,89.795918,33.673469,51.70068,Female,Angry,"3,00"
141,AF21ANS.JPG,illoyal_compressed.wav,negative,babble_79.wav,latter_reversed.wav,koldbrand_reversed.wav,138,3,0.306675910949707,50701,1,2025-11-28_11-12-15,illoyal,21.882086,74.376417,42.970522,Female,Angry,"2,28"
5,AF20NES.JPG,SILENCE,no-prime,babble_68.wav,vinde_reversed.wav,tilfreds_reversed.wav,139,4,0.3527891635894775,50701,1,2025-11-28_11-12-15,SILENCE,,,,Female,Neutral,"3,33"
183,AM27NES.JPG,SILENCE,no-prime,babble_17.wav,sygdom_reversed.wav,spænding_reversed.wav,140,5,0.4874539375305176,50701,1,2025-11-28_11-12-15,SILENCE,,,,Male,Neutral,"3,54"
59,AM08ANS.JPG,skønhed_compressed.wav,positive,babble_68.wav,kujon_reversed.wav,lyse_reversed.wav,141,4,0.2988109588623047,50701,1,2025-11-28_11-12-15,skønhed,88.662132,56.122449,62.698413,Male,Angry,"2,58"
6,AM13ANS.JPG,redskab_compressed.wav,neutral,babble_31.wav,festlig_reversed.wav,fjollet_reversed.wav,142,4,0.4787819385528564,50701,1,2025-11-28_11-12-15,redskab,58.276644,40.47619,61.22449,Male,Angry,"2,63"
78,AF33HAS.JPG,enhed_compressed.wav,neutral,babble_1.wav,maling_reversed.wav,fiasko_reversed.wav,143,8,0.381742000579834,50701,1,2025-11-28_11-12-15,enhed,63.378685,42.517007,57.936508,Female,Happy,"6,33"
90,AF32HAS.JPG,ønske_compressed.wav,positive,babble_28.wav,leder_reversed.wav,trofæ_reversed.wav,144,8,0.5041890144348145,50701,1,2025-11-28_11-12-15,ønske,87.188209,83.333333,73.582766,Female,Happy,"5,81"
21,AM06ANS.JPG,leder_compressed.wav,positive,babble_2.wav,forpint_reversed.wav,rabies_reversed.wav,145,5,0.5291891098022461,50701,1,2025-11-28_11-12-15,leder,86.507937,71.088435,89.342404,Male,Angry,"2,42"
71,AM33ANS.JPG,sygdom_compressed.wav,negative,babble_18.wav,blodig_reversed.wav,fjollet_reversed.wav,146,6,0.3326280117034912,50701,1,2025-11-28_11-12-15,sygdom,25.510204,63.605442,43.537415,Male,Angry,"3,73"
143,AF34NES.JPG,bange_compressed.wav,negative,babble_53.wav,mester_reversed.wav,skyldig_reversed.wav,147,5,0.2638750076293945,50701,1,2025-11-28_11-12-15,bange,22.675737,75.623583,45.124717,Female,Neutral,"4,00"
25,AF29ANS.JPG,skammel_compressed.wav,neutral,babble_53.wav,bygning_reversed.wav,flirte_reversed.wav,148,4,0.3315589427947998,50701,1,2025-11-28_11-12-15,skammel,51.70068,45.351474,56.462585,Female,Angry,"2,21"
82,AF09HAS.JPG,accept_compressed.wav,positive,babble_36.wav,grimme_reversed.wav,nonne_reversed.wav,149,7,0.2979609966278076,50701,1,2025-11-28_11-12-15,accept,90.47619,61.22449,75.283447,Female,Happy,"5,34"
128,AF16HAS.JPG,SILENCE,no-prime,babble_73.wav,ferie_reversed.wav,skade_reversed.wav,150,6,1.0132830142974854,50701,1,2025-11-28_11-12-15,SILENCE,,,,Female,Happy,"4,53"
20,AF05NES.JPG,SILENCE,no-prime,babble_29.wav,baby_reversed.wav,bombe_reversed.wav,151,5,0.3160338401794433,50701,1,2025-11-28_11-12-15,SILENCE,,,,Female,Neutral,"3,94"
50,AF24NES.JPG,skade_compressed.wav,negative,babble_5.wav,misbrug_reversed.wav,magisk_reversed.wav,152,5,0.4129951000213623,50701,1,2025-11-28_11-12-15,skade,28.231293,64.512472,40.47619,Female,Neutral,"3,74"
164,AF03ANS.JPG,SILENCE,no-prime,babble_79.wav,flirte_reversed.wav,selvmord_reversed.wav,153,3,0.2072870731353759,50701,1,2025-11-28_11-12-15,SILENCE,,,,Female,Angry,"2,89"
52,AM26HAS.JPG,viden_compressed.wav,positive,babble_3.wav,taxa_reversed.wav,skammel_reversed.wav,154,8,0.2649362087249756,50701,1,2025-11-28_11-12-15,viden,85.941043,67.120181,76.870748,Male,Happy,"5,56"
124,AF14ANS.JPG,lampe_compressed.wav,neutral,babble_40.wav,rabies_reversed.wav,slave_reversed.wav,155,3,0.190058946609497,50701,1,2025-11-28_11-12-15,lampe,61.337868,43.0839,59.750567,Female,Angry,"2,19"
51,AM31NES.JPG,hage_compressed.wav,neutral,babble_52.wav,sæde_reversed.wav,jubel_reversed.wav,156,5,0.2722108364105224,50701,1,2025-11-28_11-12-15,hage,59.977324,37.528345,59.637188,Male,Neutral,"4,14"
145,AF12ANS.JPG,spænding_compressed.wav,positive,babble_0.wav,illoyal_reversed.wav,feber_reversed.wav,157,4,0.6941630840301514,50701,1,2025-11-28_11-12-15,spænding,91.269841,90.929705,74.14966,Female,Angry,"3,16"
159,AM27HAS.JPG,sikker_compressed.wav,positive,babble_10.wav,stjerne_reversed.wav,tumor_reversed.wav,158,6,0.445030927658081,50701,1,2025-11-28_11-12-15,sikker,85.827664,35.600907,67.23356,Male,Happy,"5,05"
116,AF22ANS.JPG,SILENCE,no-prime,babble_93.wav,fiasko_reversed.wav,hader_reversed.wav,159,4,0.4643280506134033,50701,1,2025-11-28_11-12-15,SILENCE,,,,Female,Angry,"2,64"
16,AF04NES.JPG,tumor_compressed.wav,negative,babble_85.wav,pude_reversed.wav,redskab_reversed.wav,160,4,0.2796928882598877,50701,1,2025-11-28_11-12-15,tumor,26.75737,73.809524,40.589569,Female,Neutral,"3,71"
27,AF07HAS.JPG,SILENCE,no-prime,babble_17.wav,affald_reversed.wav,redning_reversed.wav,161,8,0.334007978439331,50701,1,2025-11-28_11-12-15,SILENCE,,,,Female,Happy,"5,97"
94,AM13HAS.JPG,SILENCE,no-prime,babble_51.wav,statue_reversed.wav,voldtægt_reversed.wav,162,7,0.8935661315917969,50701,1,2025-11-28_11-12-15,SILENCE,,,,Male,Happy,"5,53"
80,AF26ANS.JPG,trofæ_compressed.wav,positive,babble_35.wav,væmmes_reversed.wav,slagtning_reversed.wav,163,3,0.4215219020843506,50701,1,2025-11-28_11-12-15,trofæ,88.208617,61.111111,73.015873,Female,Angry,"2,46"
129,AF35HAS.JPG,krise_compressed.wav,negative,babble_32.wav,skuffe_reversed.wav,traume_reversed.wav,164,9,0.3116099834442138,50701,1,2025-11-28_11-12-15,krise,31.06576,61.678005,40.816327,Female,Happy,"6,31"
185,AM26ANS.JPG,forkert_compressed.wav,negative,babble_86.wav,fjollet_reversed.wav,glæde_reversed.wav,165,2,0.162794828414917,50701,1,2025-11-28_11-12-15,forkert,31.85941,55.895692,51.133787,Male,Angry,"2,77"
157,AF26NES.JPG,vindue_compressed.wav,neutral,babble_54.wav,kæle_reversed.wav,poesi_reversed.wav,166,5,0.1946940422058105,50701,1,2025-11-28_11-12-15,vindue,67.006803,45.011338,55.668934,Female,Neutral,"3,74"
195,AF18ANS.JPG,boble_compressed.wav,neutral,babble_99.wav,hånlig_reversed.wav,varme_reversed.wav,167,4,0.5524320602416992,50701,1,2025-11-28_11-12-15,boble,55.442177,44.671202,51.814059,Female,Angry,"2,92"
139,AM32ANS.JPG,kugle_compressed.wav,neutral,babble_75.wav,gave_reversed.wav,konkurs_reversed.wav,168,2,0.3346028327941894,50701,1,2025-11-28_11-12-15,kugle,60.430839,43.99093,56.689342,Male,Angry,"2,21"
41,AF18NES.JPG,SILENCE,no-prime,babble_71.wav,offer_reversed.wav,ugle_reversed.wav,169,5,0.5460460186004639,50701,1,2025-11-28_11-12-15,SILENCE,,,,Female,Neutral,"4,10"
67,AM02HAS.JPG,regnbue_compressed.wav,positive,babble_65.wav,forfald_reversed.wav,metal_reversed.wav,170,6,0.3931798934936523,50701,1,2025-11-28_11-12-15,regnbue,92.290249,52.60771,53.514739,Male,Happy,"5,31"
84,AF25HAS.JPG,spænding_compressed.wav,positive,babble_4.wav,sæde_reversed.wav,stjerne_reversed.wav,171,8,0.3117518424987793,50701,1,2025-11-28_11-12-15,spænding,91.269841,90.929705,74.14966,Female,Happy,"6,31"
43,AF31ANS.JPG,afvist_compressed.wav,negative,babble_34.wav,hånlig_reversed.wav,dæmon_reversed.wav,172,2,0.2687029838562011,50701,1,2025-11-28_11-12-15,afvist,17.006803,72.222222,30.839002,Female,Angry,"2,38"
169,AM23NES.JPG,glæde_compressed.wav,positive,babble_65.wav,hage_reversed.wav,koldbrand_reversed.wav,173,3,0.8974180221557617,50701,1,2025-11-28_11-12-15,glæde,97.505669,81.85941,71.201814,Male,Neutral,"3,31"
130,AM10HAS.JPG,lyse_compressed.wav,positive,babble_45.wav,koldbrand_reversed.wav,sikker_reversed.wav,174,8,0.246812105178833,50701,1,2025-11-28_11-12-15,lyse,85.034014,61.22449,71.882086,Male,Happy,"5,79"
57,AM17NES.JPG,SILENCE,no-prime,babble_41.wav,kontor_reversed.wav,plakat_reversed.wav,175,4,1.057528018951416,50701,1,2025-11-28_11-12-15,SILENCE,,,,Male,Neutral,"3,61"
4,AF05ANS.JPG,ære_compressed.wav,positive,babble_36.wav,skade_reversed.wav,enhed_reversed.wav,176,3,0.7888758182525635,50701,1,2025-11-28_11-12-15,ære,86.848073,66.893424,75.963719,Female,Angry,"2,67"
18,AM35ANS.JPG,frygtsom_compressed.wav,negative,babble_9.wav,redskab_reversed.wav,rabies_reversed.wav,177,3,1.1627020835876465,50701,1,2025-11-28_11-12-15,frygtsom,25.510204,71.768707,41.269841,Male,Angry,"2,43"
131,AF11HAS.JPG,leder_compressed.wav,positive,babble_14.wav,utro_reversed.wav,kæle_reversed.wav,178,8,0.358220100402832,50701,1,2025-11-28_11-12-15,leder,86.507937,71.088435,89.342404,Female,Happy,"6,24"
192,AF27HAS.JPG,nedbrud_compressed.wav,negative,babble_19.wav,sikker_reversed.wav,skønhed_reversed.wav,179,8,0.2390940189361572,50701,1,2025-11-28_11-12-15,nedbrud,26.190476,78.798186,39.002268,Female,Happy,"6,10"
87,AM09ANS.JPG,giftig_compressed.wav,negative,babble_57.wav,kærtegn_reversed.wav,humor_reversed.wav,180,3,0.535804033279419,50701,1,2025-11-28_11-12-15,giftig,23.809524,72.562358,50.113379,Male,Angry,"2,11"
138,AF11ANS.JPG,afvist_compressed.wav,negative,babble_36.wav,rædsel_reversed.wav,fængsel_reversed.wav,181,4,1.3753180503845217,50701,1,2025-11-28_11-12-15,afvist,17.006803,72.222222,30.839002,Female,Angry,"2,24"
95,AF09ANS.JPG,djævel_compressed.wav,negative,babble_91.wav,ønske_reversed.wav,voldtægt_reversed.wav,182,3,0.2517762184143066,50701,1,2025-11-28_11-12-15,djævel,25.056689,68.820862,60.657596,Female,Angry,"2,33"
83,AM05ANS.JPG,luder_compressed.wav,negative,babble_26.wav,vindue_reversed.wav,søsyg_reversed.wav,183,3,0.5298740863800049,50701,1,2025-11-28_11-12-15,luder,26.077098,66.326531,52.267574,Male,Angry,"2,28"
186,AF27ANS.JPG,putte_compressed.wav,positive,babble_13.wav,vindue_reversed.wav,redskab_reversed.wav,184,6,0.3694570064544678,50701,1,2025-11-28_11-12-15,putte,89.795918,47.165533,64.172336,Female,Angry,"3,05"
196,AF11NES.JPG,passion_compressed.wav,positive,babble_24.wav,tilfreds_reversed.wav,sejre_reversed.wav,185,5,0.1879680156707763,50701,1,2025-11-28_11-12-15,passion,91.043084,82.312925,69.501134,Female,Neutral,"3,22"
109,AM33HAS.JPG,fjendtlig_compressed.wav,negative,babble_60.wav,rotte_reversed.wav,djævel_reversed.wav,186,4,0.408876895904541,50701,1,2025-11-28_11-12-15,fjendtlig,30.952381,73.015873,54.988662,Male,Happy,"4,26"
184,AM22NES.JPG,SILENCE,no-prime,babble_11.wav,offer_reversed.wav,krise_reversed.wav,187,4,0.4056379795074463,50701,1,2025-11-28_11-12-15,SILENCE,,,,Male,Neutral,"3,72"
91,AF09NES.JPG,SILENCE,no-prime,babble_28.wav,slave_reversed.wav,gidsel_reversed.wav,188,5,0.2910878658294678,50701,1,2025-11-28_11-12-15,SILENCE,,,,Female,Neutral,"3,63"
70,AM25NES.JPG,blodig_compressed.wav,negative,babble_19.wav,trussel_reversed.wav,luksus_reversed.wav,189,5,0.3996760845184326,50701,1,2025-11-28_11-12-15,blodig,32.879819,72.675737,44.897959,Male,Neutral,"4,10"
172,AF22NES.JPG,kvæles_compressed.wav,negative,babble_2.wav,forpint_reversed.wav,offer_reversed.wav,190,5,0.3783938884735107,50701,1,2025-11-28_11-12-15,kvæles,17.687075,68.367347,39.002268,Female,Neutral,"3,72"
178,AF33NES.JPG,SILENCE,no-prime,babble_11.wav,hånlig_reversed.wav,humor_reversed.wav,191,4,0.3933529853820801,50701,1,2025-11-28_11-12-15,SILENCE,,,,Female,Neutral,"3,33"
136,AM03NES.JPG,penge_compressed.wav,positive,babble_62.wav,kande_reversed.wav,latter_reversed.wav,192,5,0.3182840347290039,50701,1,2025-11-28_11-12-15,penge,86.054422,64.62585,70.861678,Male,Neutral,"3,58"
1,AM25ANS.JPG,hader_compressed.wav,negative,babble_70.wav,blodig_reversed.wav,vinde_reversed.wav,193,5,0.5476880073547363,50701,1,2025-11-28_11-12-15,hader,24.036281,78.798186,57.256236,Male,Angry,"3,23"
21,AF30NES.JPG,kysse_compressed.wav,positive,babble_29.wav,frihed_reversed.wav,sindssyg_reversed.wav,-1,3,22.617015875002835,5050,1,2025-11-26_20-31-26,kysse,93.650794,82.993197,78.571429,Female,Neutral,"3,86"
80,AM21ANS.JPG,lyse_compressed.wav,positive,babble_40.wav,kiste_reversed.wav,gaffel_reversed.wav,-1,8,16.401763290996314,5050,1,2025-11-26_20-31-26,lyse,85.034014,61.22449,71.882086,Male,Angry,"2,69"
24,AF27NES.JPG,ørken_compressed.wav,negative,babble_25.wav,ledning_reversed.wav,sandhed_reversed.wav,-1,3,10.065756374999182,5050,1,2025-11-26_20-31-26,ørken,27.777778,62.358277,42.743764,Female,Neutral,"3,86"
36,AM21NES.JPG,passion_compressed.wav,positive,babble_32.wav,dæmpet_reversed.wav,rotte_reversed.wav,-1,7,5.486733707992244,5050,1,2025-11-26_20-31-26,passion,91.043084,82.312925,69.501134,Male,Neutral,"3,54"
67,AM15NES.JPG,kærtegn_compressed.wav,positive,babble_64.wav,misbrug_reversed.wav,frygtsom_reversed.wav,-1,6,6.177741584004252,5050,1,2025-11-26_20-31-26,kærtegn,88.888889,58.276644,66.099773,Male,Neutral,"3,59"
144,AF22ANS.JPG,morder_compressed.wav,negative,babble_90.wav,sandhed_reversed.wav,nonne_reversed.wav,-1,3,37.73201033299847,5050,1,2025-11-26_20-31-26,morder,17.346939,84.693878,42.743764,Female,Angry,"2,64"
108,AM29ANS.JPG,taber_compressed.wav,negative,babble_73.wav,albue_reversed.wav,kedel_reversed.wav,0,2,0.8006244999996852,5050,1,2025-11-26_20-31-26,taber,25.510204,56.122449,34.240363,Male,Angry,"1,67"
12,AM18ANS.JPG,SILENCE,no-prime,babble_78.wav,dæmon_reversed.wav,sexet_reversed.wav,1,3,1.5114829589874716,5050,1,2025-11-26_20-31-26,SILENCE,,,,Male,Angry,"1,87"
178,AF29NES.JPG,afvist_compressed.wav,negative,babble_49.wav,papir_reversed.wav,ensom_reversed.wav,2,5,1.3127383340033705,5050,1,2025-11-26_20-31-26,afvist,17.006803,72.222222,30.839002,Female,Neutral,"3,83"
74,AM13HAS.JPG,trussel_compressed.wav,negative,babble_65.wav,kiste_reversed.wav,sandhed_reversed.wav,3,8,2.5965776670054765,5050,1,2025-11-26_20-31-26,trussel,32.653061,62.585034,56.462585,Male,Happy,"5,53"
136,AF09HAS.JPG,skammel_compressed.wav,neutral,babble_18.wav,misbrug_reversed.wav,genert_reversed.wav,4,8,2.842687999989721,5050,1,2025-11-26_20-31-26,skammel,51.70068,45.351474,56.462585,Female,Happy,"5,34"
69,AF18ANS.JPG,SILENCE,no-prime,babble_81.wav,lækker_reversed.wav,genert_reversed.wav,5,4,1.640196874999674,5050,1,2025-11-26_20-31-26,SILENCE,,,,Female,Angry,"2,92"
172,AF13HAS.JPG,kujon_compressed.wav,negative,babble_10.wav,fremskridt_reversed.wav,patent_reversed.wav,6,8,0.517512042002636,5050,1,2025-11-26_20-31-26,kujon,31.06576,46.145125,32.086168,Female,Happy,"5,66"
20,AM23HAS.JPG,væmmes_compressed.wav,negative,babble_37.wav,fjollet_reversed.wav,jubel_reversed.wav,7,7,0.6211516659968765,5050,1,2025-11-26_20-31-26,væmmes,27.777778,61.451247,49.206349,Male,Happy,"5,67"
44,AM30ANS.JPG,SILENCE,no-prime,babble_10.wav,albue_reversed.wav,rigdom_reversed.wav,8,4,1.6225055840041025,5050,1,2025-11-26_20-31-26,SILENCE,,,,Male,Angry,"2,67"
179,AM17HAS.JPG,kujon_compressed.wav,negative,babble_8.wav,bygning_reversed.wav,finger_reversed.wav,9,6,0.8310932500025956,5050,1,2025-11-26_20-31-26,kujon,31.06576,46.145125,32.086168,Male,Happy,"5,39"
22,AM32ANS.JPG,skuffe_compressed.wav,negative,babble_14.wav,trofæ_reversed.wav,sandhed_reversed.wav,10,3,4.035351625003386,5050,1,2025-11-26_20-31-26,skuffe,27.097506,55.782313,37.301587,Male,Angry,"2,21"
103,AF35NES.JPG,motor_compressed.wav,neutral,babble_30.wav,blomstre_reversed.wav,skade_reversed.wav,11,5,1.0504853750026086,5050,1,2025-11-26_20-31-26,motor,58.956916,45.124717,56.689342,Female,Neutral,"3,69"
34,AM12NES.JPG,SILENCE,no-prime,babble_31.wav,bombe_reversed.wav,skammel_reversed.wav,12,5,1.947416832990712,5050,1,2025-11-26_20-31-26,SILENCE,,,,Male,Neutral,"3,87"
162,AF17NES.JPG,blomstre_compressed.wav,positive,babble_87.wav,utro_reversed.wav,kage_reversed.wav,13,5,0.6346823750063777,5050,1,2025-11-26_20-31-26,blomstre,82.312925,57.029478,62.698413,Female,Neutral,"3,84"
84,AF03HAS.JPG,skammel_compressed.wav,neutral,babble_56.wav,jubel_reversed.wav,rabies_reversed.wav,14,6,0.5287939169938909,5050,1,2025-11-26_20-31-26,skammel,51.70068,45.351474,56.462585,Female,Happy,"5,09"
83,AF16ANS.JPG,frihed_compressed.wav,positive,babble_67.wav,selvmord_reversed.wav,metal_reversed.wav,15,3,2.201655084005324,5050,1,2025-11-26_20-31-26,frihed,90.47619,63.492063,71.315193,Female,Angry,"1,95"
39,AM16ANS.JPG,ketchup_compressed.wav,neutral,babble_15.wav,knude_reversed.wav,baby_reversed.wav,16,4,0.8345017499959795,5050,1,2025-11-26_20-31-26,ketchup,63.492063,46.371882,59.977324,Male,Angry,"2,68"
62,AM26HAS.JPG,SILENCE,no-prime,babble_42.wav,kærtegn_reversed.wav,drukne_reversed.wav,17,7,1.1943757499975618,5050,1,2025-11-26_20-31-26,SILENCE,,,,Male,Happy,"5,56"
188,AF13NES.JPG,selvmord_compressed.wav,negative,babble_45.wav,gratis_reversed.wav,knude_reversed.wav,18,6,2.621359709009994,5050,1,2025-11-26_20-31-26,selvmord,14.172336,64.965986,40.589569,Female,Neutral,"3,89"
142,AF22HAS.JPG,SILENCE,no-prime,babble_79.wav,kedel_reversed.wav,spænding_reversed.wav,19,7,0.6710815409896895,5050,1,2025-11-26_20-31-26,SILENCE,,,,Female,Happy,"5,92"
116,AM25HAS.JPG,himlen_compressed.wav,positive,babble_25.wav,engel_reversed.wav,dollar_reversed.wav,20,9,2.627173875007429,5050,1,2025-11-26_20-31-26,himlen,82.76644,63.605442,69.727891,Male,Happy,"5,90"
157,AF10ANS.JPG,penge_compressed.wav,positive,babble_41.wav,engel_reversed.wav,hader_reversed.wav,21,3,2.6086437500052853,5050,1,2025-11-26_20-31-26,penge,86.054422,64.62585,70.861678,Female,Angry,"2,26"
153,AM06HAS.JPG,afskyr_compressed.wav,negative,babble_93.wav,skammel_reversed.wav,succes_reversed.wav,22,8,1.8987802500050748,5050,1,2025-11-26_20-31-26,afskyr,24.603175,68.707483,66.099773,Male,Happy,"6,06"
169,AM17ANS.JPG,feber_compressed.wav,negative,babble_92.wav,bygning_reversed.wav,søsyg_reversed.wav,23,2,1.7521771249885203,5050,1,2025-11-26_20-31-26,feber,31.292517,48.639456,39.909297,Male,Angry,"1,68"
33,AM07NES.JPG,rigdom_compressed.wav,positive,babble_76.wav,ankel_reversed.wav,affald_reversed.wav,24,4,0.9660235000046667,5050,1,2025-11-26_20-31-26,rigdom,87.301587,69.954649,76.417234,Male,Neutral,"3,57"
43,AF16HAS.JPG,røver_compressed.wav,negative,babble_88.wav,museum_reversed.wav,kugle_reversed.wav,25,6,1.8305255840095924,5050,1,2025-11-26_20-31-26,røver,29.591837,63.718821,41.043084,Female,Happy,"4,53"
64,AM34NES.JPG,cirkus_compressed.wav,positive,babble_19.wav,bifald_reversed.wav,modgang_reversed.wav,26,3,4.4556265419960255,5050,1,2025-11-26_20-31-26,cirkus,82.76644,67.687075,61.111111,Male,Neutral,"3,64"
61,AF26HAS.JPG,ferie_compressed.wav,positive,babble_0.wav,kage_reversed.wav,lækker_reversed.wav,27,7,2.515843000001041,5050,1,2025-11-26_20-31-26,ferie,92.517007,63.945578,77.097506,Female,Happy,"5,92"
70,AM07HAS.JPG,minder_compressed.wav,positive,babble_52.wav,traume_reversed.wav,sæde_reversed.wav,28,7,2.980791167006828,5050,1,2025-11-26_20-31-26,minder,84.807256,69.160998,66.666667,Male,Happy,"6,03"
127,AM35NES.JPG,tønde_compressed.wav,neutral,babble_45.wav,dollar_reversed.wav,sikker_reversed.wav,29,4,2.44134520800435,5050,1,2025-11-26_20-31-26,tønde,57.256236,38.095238,55.442177,Male,Neutral,"3,95"
14,AM30HAS.JPG,metal_compressed.wav,neutral,babble_47.wav,oprørt_reversed.wav,blomstre_reversed.wav,30,5,1.5158291249972535,5050,1,2025-11-26_20-31-26,metal,56.122449,42.970522,60.997732,Male,Happy,"5,31"
129,AM35ANS.JPG,udskud_compressed.wav,negative,babble_48.wav,beskidt_reversed.wav,blodig_reversed.wav,31,4,0.7777661659929436,5050,1,2025-11-26_20-31-26,udskud,27.55102,55.328798,48.29932,Male,Angry,"2,43"
79,AF07HAS.JPG,spænding_compressed.wav,positive,babble_27.wav,statue_reversed.wav,finger_reversed.wav,32,7,3.414163625013316,5050,1,2025-11-26_20-31-26,spænding,91.269841,90.929705,74.14966,Female,Happy,"5,97"
171,AM31ANS.JPG,viden_compressed.wav,positive,babble_79.wav,taxa_reversed.wav,hånlig_reversed.wav,33,3,2.725730417005252,5050,1,2025-11-26_20-31-26,viden,85.941043,67.120181,76.870748,Male,Angry,"2,36"
186,AM25NES.JPG,skuffe_compressed.wav,negative,babble_65.wav,kujon_reversed.wav,patent_reversed.wav,34,4,2.9734097499895142,5050,1,2025-11-26_20-31-26,skuffe,27.097506,55.782313,37.301587,Male,Neutral,"4,10"
158,AM19HAS.JPG,kedel_compressed.wav,neutral,babble_76.wav,humor_reversed.wav,sikker_reversed.wav,35,5,6.944302624993725,5050,1,2025-11-26_20-31-26,kedel,59.183673,36.507937,56.689342,Male,Happy,"5,26"
161,AM13ANS.JPG,forår_compressed.wav,positive,babble_15.wav,dollar_reversed.wav,glæde_reversed.wav,36,3,1.9808809580135855,5050,1,2025-11-26_20-31-26,forår,87.981859,64.285714,70.975057,Male,Angry,"2,63"
149,AM29HAS.JPG,SILENCE,no-prime,babble_49.wav,dollar_reversed.wav,motor_reversed.wav,37,6,3.297473333994276,5050,1,2025-11-26_20-31-26,SILENCE,,,,Male,Happy,"5,45"
57,AM24NES.JPG,SILENCE,no-prime,babble_96.wav,hånlig_reversed.wav,kedel_reversed.wav,38,9,1.0886184999981197,5050,1,2025-11-26_20-31-26,SILENCE,,,,Male,Neutral,"3,79"
59,AM28NES.JPG,luksus_compressed.wav,positive,babble_89.wav,sejre_reversed.wav,ketchup_reversed.wav,39,4,5.525295500003267,5050,1,2025-11-26_20-31-26,luksus,89.342404,53.854875,72.562358,Male,Neutral,"3,52"
151,AF15HAS.JPG,fjendtlig_compressed.wav,negative,babble_36.wav,natur_reversed.wav,genert_reversed.wav,40,8,2.224027374992147,5050,1,2025-11-26_20-31-26,fjendtlig,30.952381,73.015873,54.988662,Female,Happy,"5,71"
10,AF04ANS.JPG,slave_compressed.wav,negative,babble_23.wav,vandal_reversed.wav,morder_reversed.wav,41,3,2.2900692919938592,5050,1,2025-11-26_20-31-26,slave,20.861678,70.408163,37.301587,Female,Angry,"2,47"
105,AF01NES.JPG,nedbrud_compressed.wav,negative,babble_69.wav,magisk_reversed.wav,poesi_reversed.wav,42,6,6.048289457990904,5050,1,2025-11-26_20-31-26,nedbrud,26.190476,78.798186,39.002268,Female,Neutral,"3,81"
31,AM11ANS.JPG,genert_compressed.wav,neutral,babble_51.wav,gade_reversed.wav,frygtsom_reversed.wav,43,3,4.884139458008576,5050,1,2025-11-26_20-31-26,genert,52.60771,42.743764,39.002268,Male,Angry,"2,47"
85,AM16HAS.JPG,grimme_compressed.wav,negative,babble_25.wav,kontor_reversed.wav,finger_reversed.wav,44,9,4.064566417000606,5050,1,2025-11-26_20-31-26,grimme,27.55102,60.997732,48.29932,Male,Happy,"5,78"
94,AM12HAS.JPG,varme_compressed.wav,positive,babble_88.wav,natur_reversed.wav,frygtsom_reversed.wav,45,8,1.9703771249915008,5050,1,2025-11-26_20-31-26,varme,84.013605,42.290249,63.605442,Male,Happy,"5,34"
77,AF26NES.JPG,frelser_compressed.wav,positive,babble_35.wav,humor_reversed.wav,heldig_reversed.wav,46,6,1.208192791993497,5050,1,2025-11-26_20-31-26,frelser,87.641723,65.759637,75.283447,Female,Neutral,"3,74"
9,AF15ANS.JPG,skade_compressed.wav,negative,babble_84.wav,kærtegn_reversed.wav,fjollet_reversed.wav,47,4,6.015912207993097,5050,1,2025-11-26_20-31-26,skade,28.231293,64.512472,40.47619,Female,Angry,"2,53"
174,AF19ANS.JPG,SILENCE,no-prime,babble_42.wav,venlig_reversed.wav,succes_reversed.wav,48,3,2.317923916998552,5050,1,2025-11-26_20-31-26,SILENCE,,,,Female,Angry,"2,79"
133,AF29ANS.JPG,fiasko_compressed.wav,negative,babble_44.wav,ørken_reversed.wav,bygning_reversed.wav,49,3,2.18737654198776,5050,1,2025-11-26_20-31-26,fiasko,19.274376,56.122449,27.210884,Female,Angry,"2,21"
114,AF11NES.JPG,gidsel_compressed.wav,negative,babble_70.wav,sandhed_reversed.wav,ønske_reversed.wav,50,4,4.08484637500078,5050,1,2025-11-26_20-31-26,gidsel,24.943311,76.643991,32.086168,Female,Neutral,"3,22"
15,AF08NES.JPG,flirte_compressed.wav,positive,babble_76.wav,statue_reversed.wav,voldtægt_reversed.wav,51,4,0.7225708750047488,5050,1,2025-11-26_20-31-26,flirte,85.260771,78.344671,70.748299,Female,Neutral,"3,56"
117,AF22NES.JPG,viden_compressed.wav,positive,babble_63.wav,genstand_reversed.wav,lyse_reversed.wav,52,4,1.5328949579998152,5050,1,2025-11-26_20-31-26,viden,85.941043,67.120181,76.870748,Female,Neutral,"3,72"
56,AM20NES.JPG,SILENCE,no-prime,babble_37.wav,pude_reversed.wav,ugle_reversed.wav,53,3,0.6778208330069901,5050,1,2025-11-26_20-31-26,SILENCE,,,,Male,Neutral,"3,00"
118,AM03HAS.JPG,luksus_compressed.wav,positive,babble_91.wav,flirte_reversed.wav,koldbrand_reversed.wav,54,6,3.354878333993838,5050,1,2025-11-26_20-31-26,luksus,89.342404,53.854875,72.562358,Male,Happy,"5,17"
107,AF03NES.JPG,enhed_compressed.wav,neutral,babble_85.wav,knude_reversed.wav,koldbrand_reversed.wav,55,5,1.0654650420037797,5050,1,2025-11-26_20-31-26,enhed,63.378685,42.517007,57.936508,Female,Neutral,"3,78"
115,AF24NES.JPG,feber_compressed.wav,negative,babble_45.wav,forpint_reversed.wav,giftig_reversed.wav,56,4,5.796667875009007,5050,1,2025-11-26_20-31-26,feber,31.292517,48.639456,39.909297,Female,Neutral,"3,74"
35,AM02NES.JPG,boble_compressed.wav,neutral,babble_62.wav,jubel_reversed.wav,røver_reversed.wav,57,3,2.7131300830078544,5050,1,2025-11-26_20-31-26,boble,55.442177,44.671202,51.814059,Male,Neutral,"3,56"
124,AF23ANS.JPG,stjerne_compressed.wav,positive,babble_71.wav,forkert_reversed.wav,kæle_reversed.wav,58,4,4.629135459006648,5050,1,2025-11-26_20-31-26,stjerne,82.426304,66.099773,53.061224,Female,Angry,"2,54"
72,AM13NES.JPG,genstand_compressed.wav,neutral,babble_30.wav,patent_reversed.wav,talent_reversed.wav,59,6,3.4121884999913163,5050,1,2025-11-26_20-31-26,genstand,59.637188,36.734694,59.637188,Male,Neutral,"4,03"
99,AM34HAS.JPG,luder_compressed.wav,negative,babble_75.wav,oprør_reversed.wav,spænding_reversed.wav,60,8,4.918192208002438,5050,1,2025-11-26_20-31-26,luder,26.077098,66.326531,52.267574,Male,Happy,"5,50"
110,AF10HAS.JPG,cirkus_compressed.wav,positive,babble_67.wav,sandhed_reversed.wav,kontor_reversed.wav,61,7,1.534141042007832,5050,1,2025-11-26_20-31-26,cirkus,82.76644,67.687075,61.111111,Female,Happy,"5,34"
185,AF21ANS.JPG,slagtning_compressed.wav,negative,babble_61.wav,skade_reversed.wav,ferie_reversed.wav,62,3,1.8337847090006107,5050,1,2025-11-26_20-31-26,slagtning,18.594104,76.75737,43.310658,Female,Angry,"2,28"
98,AM31HAS.JPG,afskyr_compressed.wav,negative,babble_46.wav,grusom_reversed.wav,sexet_reversed.wav,63,6,0.6906732920033392,5050,1,2025-11-26_20-31-26,afskyr,24.603175,68.707483,66.099773,Male,Happy,"5,38"
140,AM06NES.JPG,grusom_compressed.wav,negative,babble_66.wav,banner_reversed.wav,museum_reversed.wav,64,4,0.7211027909943368,5050,1,2025-11-26_20-31-26,grusom,22.335601,64.399093,48.072562,Male,Neutral,"3,83"
26,AF09ANS.JPG,dollar_compressed.wav,positive,babble_27.wav,kujon_reversed.wav,varme_reversed.wav,65,3,1.1602045410108983,5050,1,2025-11-26_20-31-26,dollar,84.693878,68.820862,71.768707,Female,Angry,"2,33"
29,AM07ANS.JPG,SILENCE,no-prime,babble_17.wav,forfald_reversed.wav,tilfreds_reversed.wav,66,2,5.200524416999542,5050,1,2025-11-26_20-31-26,SILENCE,,,,Male,Angry,"2,14"
7,AM05NES.JPG,kande_compressed.wav,neutral,babble_31.wav,misbrug_reversed.wav,festlig_reversed.wav,67,2,4.168608000007225,5050,1,2025-11-26_20-31-26,kande,59.410431,43.99093,57.256236,Male,Neutral,"3,53"
189,AM02HAS.JPG,SILENCE,no-prime,babble_63.wav,boble_reversed.wav,brænde_reversed.wav,68,6,3.1254556250059977,5050,1,2025-11-26_20-31-26,SILENCE,,,,Male,Happy,"5,31"
73,AF26ANS.JPG,vindue_compressed.wav,neutral,babble_23.wav,luksus_reversed.wav,morder_reversed.wav,69,3,5.524497250007698,5050,1,2025-11-26_20-31-26,vindue,67.006803,45.011338,55.668934,Female,Angry,"2,46"
159,AM09HAS.JPG,slave_compressed.wav,negative,babble_88.wav,lærer_reversed.wav,kæle_reversed.wav,70,7,2.5009005419997266,5050,1,2025-11-26_20-31-26,slave,20.861678,70.408163,37.301587,Male,Happy,"5,67"
166,AF05NES.JPG,udskud_compressed.wav,negative,babble_96.wav,dæmpet_reversed.wav,voldtægt_reversed.wav,71,6,2.880968917001155,5050,1,2025-11-26_20-31-26,udskud,27.55102,55.328798,48.29932,Female,Neutral,"3,94"
82,AM04NES.JPG,SILENCE,no-prime,babble_55.wav,kærtegn_reversed.wav,avis_reversed.wav,72,5,0.5837217499938561,5050,1,2025-11-26_20-31-26,SILENCE,,,,Male,Neutral,"4,06"
49,AF07NES.JPG,accept_compressed.wav,positive,babble_45.wav,gaffel_reversed.wav,konge_reversed.wav,73,6,1.1871592499956023,5050,1,2025-11-26_20-31-26,accept,90.47619,61.22449,75.283447,Female,Neutral,"3,94"
25,AF32HAS.JPG,spænding_compressed.wav,positive,babble_10.wav,offer_reversed.wav,banner_reversed.wav,74,8,1.3341653749957914,5050,1,2025-11-26_20-31-26,spænding,91.269841,90.929705,74.14966,Female,Happy,"5,81"
40,AF17HAS.JPG,maling_compressed.wav,neutral,babble_77.wav,smerte_reversed.wav,hader_reversed.wav,75,9,0.4707896250038175,5050,1,2025-11-26_20-31-26,maling,63.718821,46.485261,65.192744,Female,Happy,"6,18"
138,AF06NES.JPG,luder_compressed.wav,negative,babble_10.wav,modgang_reversed.wav,giftig_reversed.wav,76,5,1.7248091670044232,5050,1,2025-11-26_20-31-26,luder,26.077098,66.326531,52.267574,Female,Neutral,"4,31"
16,AF11ANS.JPG,rigdom_compressed.wav,positive,babble_19.wav,stjerne_reversed.wav,jubel_reversed.wav,77,3,3.589187833000324,5050,1,2025-11-26_20-31-26,rigdom,87.301587,69.954649,76.417234,Female,Angry,"2,24"
50,AM03ANS.JPG,tortur_compressed.wav,negative,babble_11.wav,tilfreds_reversed.wav,fiasko_reversed.wav,78,2,1.534327666988247,5050,1,2025-11-26_20-31-26,tortur,17.687075,69.160998,37.755102,Male,Angry,"1,64"
195,AF14NES.JPG,regnbue_compressed.wav,positive,babble_20.wav,nøgle_reversed.wav,vandal_reversed.wav,79,4,1.916219042002922,5050,1,2025-11-26_20-31-26,regnbue,92.290249,52.60771,53.514739,Female,Neutral,"3,29"
66,AF20NES.JPG,grusom_compressed.wav,negative,babble_8.wav,humor_reversed.wav,trussel_reversed.wav,80,5,4.4794825419958215,5050,1,2025-11-26_20-31-26,grusom,22.335601,64.399093,48.072562,Female,Neutral,"3,33"
200,AM14HAS.JPG,brænde_compressed.wav,negative,babble_57.wav,tilfreds_reversed.wav,kontor_reversed.wav,81,8,1.1612119999917925,5050,1,2025-11-26_20-31-26,brænde,30.952381,70.521542,47.845805,Male,Happy,"5,03"
41,AF06ANS.JPG,varme_compressed.wav,positive,babble_92.wav,søsyg_reversed.wav,konge_reversed.wav,82,9,3.877152458007913,5050,1,2025-11-26_20-31-26,varme,84.013605,42.290249,63.605442,Female,Angry,"2,67"
139,AF23NES.JPG,glæde_compressed.wav,positive,babble_59.wav,marked_reversed.wav,jubel_reversed.wav,83,4,0.8988782920059748,5050,1,2025-11-26_20-31-26,glæde,97.505669,81.85941,71.201814,Female,Neutral,"3,23"
54,AF28HAS.JPG,SILENCE,no-prime,babble_99.wav,rådden_reversed.wav,ønske_reversed.wav,84,8,1.1842957089975243,5050,1,2025-11-26_20-31-26,SILENCE,,,,Female,Happy,"5,36"
91,AF35ANS.JPG,kærtegn_compressed.wav,positive,babble_63.wav,nonsens_reversed.wav,viden_reversed.wav,85,1,2.877585124995676,5050,1,2025-11-26_20-31-26,kærtegn,88.888889,58.276644,66.099773,Female,Angry,"2,76"
18,AF31ANS.JPG,banner_compressed.wav,neutral,babble_91.wav,viden_reversed.wav,hader_reversed.wav,86,3,5.126590458996361,5050,1,2025-11-26_20-31-26,banner,61.22449,43.424036,54.421769,Female,Angry,"2,38"
17,AM05ANS.JPG,voldtægt_compressed.wav,negative,babble_65.wav,flirte_reversed.wav,luksus_reversed.wav,87,3,1.7877642500097863,5050,1,2025-11-26_20-31-26,voldtægt,14.172336,77.210884,33.673469,Male,Angry,"2,28"
37,AM23ANS.JPG,maling_compressed.wav,neutral,babble_14.wav,taxa_reversed.wav,succes_reversed.wav,88,4,1.5801498329965398,5050,1,2025-11-26_20-31-26,maling,63.718821,46.485261,65.192744,Male,Angry,"2,49"
102,AF25HAS.JPG,patent_compressed.wav,neutral,babble_74.wav,blomstre_reversed.wav,rædsel_reversed.wav,89,8,3.215774791999138,5050,1,2025-11-26_20-31-26,patent,59.977324,39.68254,55.555556,Female,Happy,"6,31"
96,AM10HAS.JPG,fjendtlig_compressed.wav,negative,babble_75.wav,fjendtlig_reversed.wav,enhed_reversed.wav,90,8,0.6462679999967804,5050,1,2025-11-26_20-31-26,fjendtlig,30.952381,73.015873,54.988662,Male,Happy,"5,79"
95,AM29NES.JPG,udskud_compressed.wav,negative,babble_67.wav,pude_reversed.wav,stjerne_reversed.wav,91,2,3.3213860419928096,5050,1,2025-11-26_20-31-26,udskud,27.55102,55.328798,48.29932,Male,Neutral,"3,74"
97,AM12ANS.JPG,SILENCE,no-prime,babble_79.wav,drukne_reversed.wav,brutal_reversed.wav,92,4,0.7489769170060754,5050,1,2025-11-26_20-31-26,SILENCE,,,,Male,Angry,"2,66"
126,AM22NES.JPG,konge_compressed.wav,positive,babble_7.wav,fase_reversed.wav,lampe_reversed.wav,93,2,5.119581291000941,5050,1,2025-11-26_20-31-26,konge,82.312925,62.471655,83.673469,Male,Neutral,"3,72"
5,AM33HAS.JPG,udskud_compressed.wav,negative,babble_6.wav,sexet_reversed.wav,vandal_reversed.wav,94,4,0.8925619170040591,5050,1,2025-11-26_20-31-26,udskud,27.55102,55.328798,48.29932,Male,Happy,"4,26"
90,AF12NES.JPG,SILENCE,no-prime,babble_1.wav,motor_reversed.wav,gaffel_reversed.wav,95,4,2.237127165994025,5050,1,2025-11-26_20-31-26,SILENCE,,,,Female,Neutral,"3,47"
112,AF34NES.JPG,SILENCE,no-prime,babble_57.wav,oprørt_reversed.wav,taxa_reversed.wav,96,5,0.4850779159896774,5050,1,2025-11-26_20-31-26,SILENCE,,,,Female,Neutral,"4,00"
55,AM01NES.JPG,skyldig_compressed.wav,negative,babble_62.wav,lyse_reversed.wav,drukne_reversed.wav,97,5,2.087239417000092,5050,1,2025-11-26_20-31-26,skyldig,29.818594,68.480726,35.034014,Male,Neutral,"3,91"
128,AF19HAS.JPG,kedel_compressed.wav,neutral,babble_95.wav,kage_reversed.wav,ønske_reversed.wav,98,9,1.5398743750120047,5050,1,2025-11-26_20-31-26,kedel,59.183673,36.507937,56.689342,Female,Happy,"6,10"
175,AM06ANS.JPG,frelser_compressed.wav,positive,babble_27.wav,rådden_reversed.wav,sexet_reversed.wav,99,3,1.3186242090014275,5050,1,2025-11-26_20-31-26,frelser,87.641723,65.759637,75.283447,Male,Angry,"2,42"
4,AF06HAS.JPG,accept_compressed.wav,positive,babble_16.wav,lyse_reversed.wav,magisk_reversed.wav,100,8,1.7871269580064109,5050,1,2025-11-26_20-31-26,accept,90.47619,61.22449,75.283447,Female,Happy,"6,06"
163,AM22HAS.JPG,heldig_compressed.wav,positive,babble_65.wav,konge_reversed.wav,pervers_reversed.wav,101,9,0.2992868330038618,5050,1,2025-11-26_20-31-26,heldig,92.630385,74.036281,68.594104,Male,Happy,"6,11"
150,AM27ANS.JPG,sollys_compressed.wav,positive,babble_56.wav,hader_reversed.wav,ankel_reversed.wav,102,3,1.1600416250003036,5050,1,2025-11-26_20-31-26,sollys,87.981859,69.160998,63.8322,Male,Angry,"3,00"
113,AF19NES.JPG,cirkus_compressed.wav,positive,babble_25.wav,fiasko_reversed.wav,borddug_reversed.wav,103,5,0.0948787079978501,5050,1,2025-11-26_20-31-26,cirkus,82.76644,67.687075,61.111111,Female,Neutral,"3,64"
51,AM26NES.JPG,patent_compressed.wav,neutral,babble_8.wav,festlig_reversed.wav,vindue_reversed.wav,104,4,2.102841708008782,5050,1,2025-11-26_20-31-26,patent,59.977324,39.68254,55.555556,Male,Neutral,"3,74"
38,AF25ANS.JPG,redning_compressed.wav,positive,babble_26.wav,kæle_reversed.wav,sygdom_reversed.wav,105,3,1.2106472089944873,5050,1,2025-11-26_20-31-26,redning,87.301587,74.036281,73.129252,Female,Angry,"2,26"
176,AM16NES.JPG,redning_compressed.wav,positive,babble_4.wav,kujon_reversed.wav,vandal_reversed.wav,106,4,2.5975187080039177,5050,1,2025-11-26_20-31-26,redning,87.301587,74.036281,73.129252,Male,Neutral,"3,29"
131,AF16NES.JPG,SILENCE,no-prime,babble_50.wav,metal_reversed.wav,baby_reversed.wav,107,4,1.054391374986153,5050,1,2025-11-26_20-31-26,SILENCE,,,,Female,Neutral,"3,41"
13,AF27ANS.JPG,konkurs_compressed.wav,negative,babble_65.wav,gidsel_reversed.wav,himlen_reversed.wav,108,4,2.266928666998865,5050,1,2025-11-26_20-31-26,konkurs,22.675737,70.408163,37.07483,Female,Angry,"3,05"
194,AM04HAS.JPG,SILENCE,no-prime,babble_97.wav,ørken_reversed.wav,rotte_reversed.wav,109,6,2.1352619160024915,5050,1,2025-11-26_20-31-26,SILENCE,,,,Male,Happy,"5,80"
143,AF08ANS.JPG,poesi_compressed.wav,neutral,babble_79.wav,skade_reversed.wav,brutal_reversed.wav,110,6,4.661330499991891,5050,1,2025-11-26_20-31-26,poesi,66.439909,45.351474,60.204082,Female,Angry,"3,00"
45,AM22ANS.JPG,blomstre_compressed.wav,positive,babble_18.wav,lampe_reversed.wav,skammel_reversed.wav,111,4,0.8771056250116089,5050,1,2025-11-26_20-31-26,blomstre,82.312925,57.029478,62.698413,Male,Angry,"2,31"
78,AM14ANS.JPG,slagtning_compressed.wav,negative,babble_71.wav,fængsel_reversed.wav,jubel_reversed.wav,112,3,0.8375297080056043,5050,1,2025-11-26_20-31-26,slagtning,18.594104,76.75737,43.310658,Male,Angry,"2,50"
130,AM11HAS.JPG,væmmes_compressed.wav,negative,babble_92.wav,kande_reversed.wav,tortur_reversed.wav,113,6,0.5845247919933172,5050,1,2025-11-26_20-31-26,væmmes,27.777778,61.451247,49.206349,Male,Happy,"5,82"
76,AF18HAS.JPG,skyldig_compressed.wav,negative,babble_75.wav,fremskridt_reversed.wav,bifald_reversed.wav,114,7,0.4615400830080034,5050,1,2025-11-26_20-31-26,skyldig,29.818594,68.480726,35.034014,Female,Happy,"5,97"
134,AM21HAS.JPG,SILENCE,no-prime,babble_78.wav,respekt_reversed.wav,enhed_reversed.wav,115,7,0.4835460840113228,5050,1,2025-11-26_20-31-26,SILENCE,,,,Male,Happy,"5,69"
30,AF30ANS.JPG,knude_compressed.wav,neutral,babble_21.wav,blomstre_reversed.wav,natur_reversed.wav,116,4,0.7539999159926083,5050,1,2025-11-26_20-31-26,knude,52.60771,46.145125,52.947846,Female,Angry,"2,79"
147,AF14HAS.JPG,genstand_compressed.wav,neutral,babble_58.wav,ørken_reversed.wav,blodig_reversed.wav,117,7,1.5938938339968445,5050,1,2025-11-26_20-31-26,genstand,59.637188,36.734694,59.637188,Female,Happy,"5,68"
3,AF25NES.JPG,ønske_compressed.wav,positive,babble_80.wav,redskab_reversed.wav,leder_reversed.wav,118,5,1.4780267500027549,5050,1,2025-11-26_20-31-26,ønske,87.188209,83.333333,73.582766,Female,Neutral,"3,92"
42,AF05ANS.JPG,kysse_compressed.wav,positive,babble_97.wav,mave_reversed.wav,gave_reversed.wav,119,9,4.889070707999053,5050,1,2025-11-26_20-31-26,kysse,93.650794,82.993197,78.571429,Female,Angry,"2,67"
111,AF33HAS.JPG,fængsel_compressed.wav,negative,babble_37.wav,lækker_reversed.wav,sandhed_reversed.wav,120,9,1.3448002920049476,5050,1,2025-11-26_20-31-26,fængsel,23.24263,64.62585,47.619048,Female,Happy,"6,33"
135,AM33NES.JPG,SILENCE,no-prime,babble_31.wav,sæde_reversed.wav,søsyg_reversed.wav,121,3,0.8600243330001831,5050,1,2025-11-26_20-31-26,SILENCE,,,,Male,Neutral,"3,55"
160,AF14ANS.JPG,rabies_compressed.wav,negative,babble_5.wav,poesi_reversed.wav,knude_reversed.wav,122,2,0.8906617910106434,5050,1,2025-11-26_20-31-26,rabies,20.068027,69.160998,43.650794,Female,Angry,"2,19"
27,AM32HAS.JPG,SILENCE,no-prime,babble_98.wav,jubel_reversed.wav,marked_reversed.wav,123,6,2.5563529579958413,5050,1,2025-11-26_20-31-26,SILENCE,,,,Male,Happy,"5,79"
146,AM15HAS.JPG,beskidt_compressed.wav,negative,babble_16.wav,cirkel_reversed.wav,vandfald_reversed.wav,124,8,2.842442374996608,5050,1,2025-11-26_20-31-26,beskidt,34.920635,55.328798,53.287982,Male,Happy,"5,18"
190,AF18NES.JPG,konge_compressed.wav,positive,babble_37.wav,fedme_reversed.wav,rigdom_reversed.wav,125,6,1.316772292004316,5050,1,2025-11-26_20-31-26,konge,82.312925,62.471655,83.673469,Female,Neutral,"4,10"
182,AF02ANS.JPG,konge_compressed.wav,positive,babble_64.wav,finger_reversed.wav,bygning_reversed.wav,126,1,2.7916686659882544,5050,1,2025-11-26_20-31-26,konge,82.312925,62.471655,83.673469,Female,Angry,"2,67"
170,AF12HAS.JPG,kærtegn_compressed.wav,positive,babble_62.wav,kiste_reversed.wav,selvmord_reversed.wav,127,6,2.2469185829977505,5050,1,2025-11-26_20-31-26,kærtegn,88.888889,58.276644,66.099773,Female,Happy,"4,61"
87,AM08NES.JPG,SILENCE,no-prime,babble_52.wav,talent_reversed.wav,affald_reversed.wav,128,5,0.8782233749952866,5050,1,2025-11-26_20-31-26,SILENCE,,,,Male,Neutral,"3,83"
137,AM23NES.JPG,bange_compressed.wav,negative,babble_25.wav,dæmpet_reversed.wav,sandhed_reversed.wav,129,2,0.4285045830038143,5050,1,2025-11-26_20-31-26,bange,22.675737,75.623583,45.124717,Male,Neutral,"3,31"
48,AM11NES.JPG,blomstre_compressed.wav,positive,babble_5.wav,kontor_reversed.wav,kage_reversed.wav,130,3,1.733467665995704,5050,1,2025-11-26_20-31-26,blomstre,82.312925,57.029478,62.698413,Male,Neutral,"3,92"
100,AM03NES.JPG,kvæles_compressed.wav,negative,babble_13.wav,violin_reversed.wav,gade_reversed.wav,131,2,1.4971919169911416,5050,1,2025-11-26_20-31-26,kvæles,17.687075,68.367347,39.002268,Male,Neutral,"3,58"
71,AF13ANS.JPG,gave_compressed.wav,positive,babble_99.wav,taber_reversed.wav,grimme_reversed.wav,132,2,4.724299000008614,5050,1,2025-11-26_20-31-26,gave,88.095238,69.614512,62.585034,Female,Angry,"2,29"
168,AM04ANS.JPG,brutal_compressed.wav,negative,babble_10.wav,passion_reversed.wav,selvmord_reversed.wav,133,4,1.1945412499917438,5050,1,2025-11-26_20-31-26,brutal,31.746032,74.829932,52.040816,Male,Angry,"2,44"
23,AM27NES.JPG,afvist_compressed.wav,negative,babble_96.wav,tortur_reversed.wav,blodig_reversed.wav,134,3,3.2850655000074767,5050,1,2025-11-26_20-31-26,afvist,17.006803,72.222222,30.839002,Male,Neutral,"3,54"
93,AF04NES.JPG,knude_compressed.wav,neutral,babble_34.wav,frygtsom_reversed.wav,tilfreds_reversed.wav,135,4,0.6849672079988522,5050,1,2025-11-26_20-31-26,knude,52.60771,46.145125,52.947846,Female,Neutral,"3,71"
184,AF04HAS.JPG,tumor_compressed.wav,negative,babble_88.wav,syndig_reversed.wav,lærer_reversed.wav,136,8,2.986674290994415,5050,1,2025-11-26_20-31-26,tumor,26.75737,73.809524,40.589569,Female,Happy,"5,56"
192,AM34ANS.JPG,violin_compressed.wav,neutral,babble_62.wav,røver_reversed.wav,gade_reversed.wav,137,4,2.840530041998136,5050,1,2025-11-26_20-31-26,violin,61.564626,39.569161,58.730159,Male,Angry,"2,69"
109,AF21HAS.JPG,SILENCE,no-prime,babble_1.wav,koldbrand_reversed.wav,kedel_reversed.wav,138,8,1.6231632089911727,5050,1,2025-11-26_20-31-26,SILENCE,,,,Female,Happy,"5,77"
177,AF11HAS.JPG,mester_compressed.wav,positive,babble_89.wav,kage_reversed.wav,nedbrud_reversed.wav,139,9,3.5846111249993555,5050,1,2025-11-26_20-31-26,mester,95.69161,66.326531,73.696145,Female,Happy,"6,24"
145,AF32NES.JPG,SILENCE,no-prime,babble_99.wav,mave_reversed.wav,pude_reversed.wav,140,6,1.4470094999996943,5050,1,2025-11-26_20-31-26,SILENCE,,,,Female,Neutral,"3,79"
193,AF17ANS.JPG,SILENCE,no-prime,babble_42.wav,natur_reversed.wav,oprørt_reversed.wav,141,2,3.795491917000618,5050,1,2025-11-26_20-31-26,SILENCE,,,,Female,Angry,"2,18"
53,AM28HAS.JPG,oprør_compressed.wav,negative,babble_62.wav,fjollet_reversed.wav,banner_reversed.wav,142,6,0.7938190830027452,5050,1,2025-11-26_20-31-26,oprør,33.560091,72.44898,47.39229,Male,Happy,"5,55"
196,AF30HAS.JPG,utro_compressed.wav,negative,babble_50.wav,fængsel_reversed.wav,pervers_reversed.wav,143,7,1.2125533329963218,5050,1,2025-11-26_20-31-26,utro,23.24263,70.294785,34.240363,Female,Happy,"5,80"
46,AM05HAS.JPG,fiasko_compressed.wav,negative,babble_68.wav,lampe_reversed.wav,vinde_reversed.wav,144,6,2.719084042008035,5050,1,2025-11-26_20-31-26,fiasko,19.274376,56.122449,27.210884,Male,Happy,"5,97"
191,AF35HAS.JPG,dæmon_compressed.wav,negative,babble_19.wav,taber_reversed.wav,fremskridt_reversed.wav,145,6,1.7893688330077566,5050,1,2025-11-26_20-31-26,dæmon,23.922902,76.643991,55.442177,Female,Happy,"6,31"
187,AM31NES.JPG,flirte_compressed.wav,positive,babble_33.wav,luksus_reversed.wav,spise_reversed.wav,146,4,2.107868958002655,5050,1,2025-11-26_20-31-26,flirte,85.260771,78.344671,70.748299,Male,Neutral,"4,14"
183,AM08ANS.JPG,musik_compressed.wav,positive,babble_44.wav,hjerte_reversed.wav,ledning_reversed.wav,147,3,2.5803281249973224,5050,1,2025-11-26_20-31-26,musik,92.176871,60.31746,72.44898,Male,Angry,"2,58"
104,AF10NES.JPG,humor_compressed.wav,positive,babble_7.wav,drukne_reversed.wav,bombe_reversed.wav,148,4,0.6188918330008164,5050,1,2025-11-26_20-31-26,humor,97.052154,62.358277,68.93424,Female,Neutral,"3,18"
123,AM32NES.JPG,grusom_compressed.wav,negative,babble_78.wav,borddug_reversed.wav,utro_reversed.wav,149,4,1.9104268749943003,5050,1,2025-11-26_20-31-26,grusom,22.335601,64.399093,48.072562,Male,Neutral,"3,29"
119,AM14NES.JPG,forår_compressed.wav,positive,babble_24.wav,konge_reversed.wav,ferie_reversed.wav,150,5,2.0347685830056434,5050,1,2025-11-26_20-31-26,forår,87.981859,64.285714,70.975057,Male,Neutral,"3,66"
121,AF07ANS.JPG,genstand_compressed.wav,neutral,babble_42.wav,misbrug_reversed.wav,engel_reversed.wav,151,4,1.9998385829967449,5050,1,2025-11-26_20-31-26,genstand,59.637188,36.734694,59.637188,Female,Angry,"2,44"
1,AM28ANS.JPG,jubel_compressed.wav,positive,babble_72.wav,rædsel_reversed.wav,selvmord_reversed.wav,152,3,1.7796825830009766,5050,1,2025-11-26_20-31-26,jubel,91.836735,69.387755,68.027211,Male,Angry,"2,21"
8,AM24HAS.JPG,kysse_compressed.wav,positive,babble_41.wav,måned_reversed.wav,jubel_reversed.wav,153,9,3.2341115419985726,5050,1,2025-11-26_20-31-26,kysse,93.650794,82.993197,78.571429,Male,Happy,"5,77"
52,AF24ANS.JPG,leder_compressed.wav,positive,babble_13.wav,blodig_reversed.wav,fedme_reversed.wav,154,4,1.7349815420020605,5050,1,2025-11-26_20-31-26,leder,86.507937,71.088435,89.342404,Female,Angry,"2,95"
60,AM09NES.JPG,forår_compressed.wav,positive,babble_50.wav,fremskridt_reversed.wav,ønske_reversed.wav,155,4,1.387617667001905,5050,1,2025-11-26_20-31-26,forår,87.981859,64.285714,70.975057,Male,Neutral,"3,71"
106,AF12ANS.JPG,illoyal_compressed.wav,negative,babble_63.wav,natur_reversed.wav,succes_reversed.wav,156,6,2.42294312499871,5050,1,2025-11-26_20-31-26,illoyal,21.882086,74.376417,42.970522,Female,Angry,"3,16"
122,AF28ANS.JPG,ugle_compressed.wav,neutral,babble_68.wav,konkurs_reversed.wav,plakat_reversed.wav,157,4,2.497015417000512,5050,1,2025-11-26_20-31-26,ugle,65.759637,45.124717,65.986395,Female,Angry,"2,12"
6,AM20ANS.JPG,syndig_compressed.wav,negative,babble_22.wav,redskab_reversed.wav,kage_reversed.wav,158,4,0.9956744999944932,5050,1,2025-11-26_20-31-26,syndig,33.219955,71.315193,48.072562,Male,Angry,"2,90"
81,AM33ANS.JPG,SILENCE,no-prime,babble_91.wav,sygdom_reversed.wav,blomstre_reversed.wav,159,5,1.3830707089946372,5050,1,2025-11-26_20-31-26,SILENCE,,,,Male,Angry,"3,73"
58,AF33NES.JPG,offer_compressed.wav,negative,babble_97.wav,opstemt_reversed.wav,grimme_reversed.wav,160,4,4.2215886670019245,5050,1,2025-11-26_20-31-26,offer,24.716553,68.707483,30.498866,Female,Neutral,"3,33"
75,AF02HAS.JPG,bifald_compressed.wav,positive,babble_4.wav,natur_reversed.wav,patent_reversed.wav,161,9,0.0332527499995194,5050,1,2025-11-26_20-31-26,bifald,85.034014,65.759637,73.469388,Female,Happy,"6,08"
199,AM10NES.JPG,accept_compressed.wav,positive,babble_89.wav,enhed_reversed.wav,venlig_reversed.wav,162,5,1.9820154999906665,5050,1,2025-11-26_20-31-26,accept,90.47619,61.22449,75.283447,Male,Neutral,"3,89"
167,AF15NES.JPG,SILENCE,no-prime,babble_73.wav,dæmpet_reversed.wav,fjollet_reversed.wav,163,4,1.408472333001555,5050,1,2025-11-26_20-31-26,SILENCE,,,,Female,Neutral,"3,37"
88,AM19NES.JPG,sejre_compressed.wav,positive,babble_66.wav,plakat_reversed.wav,sindssyg_reversed.wav,164,3,1.5285598329937784,5050,1,2025-11-26_20-31-26,sejre,88.435374,65.53288,79.138322,Male,Neutral,"3,69"
92,AM24ANS.JPG,afvist_compressed.wav,negative,babble_6.wav,djævel_reversed.wav,ensom_reversed.wav,165,4,2.835902332997648,5050,1,2025-11-26_20-31-26,afvist,17.006803,72.222222,30.839002,Male,Angry,"2,64"
68,AF23HAS.JPG,mester_compressed.wav,positive,babble_92.wav,skønhed_reversed.wav,væmmes_reversed.wav,166,6,2.4726585839962354,5050,1,2025-11-26_20-31-26,mester,95.69161,66.326531,73.696145,Female,Happy,"5,36"
11,AM19ANS.JPG,ankel_compressed.wav,neutral,babble_16.wav,flirte_reversed.wav,sexet_reversed.wav,167,4,1.7909567080059787,5050,1,2025-11-26_20-31-26,ankel,59.750567,47.165533,54.081633,Male,Angry,"2,95"
148,AF33ANS.JPG,rædsel_compressed.wav,negative,babble_19.wav,giftig_reversed.wav,konge_reversed.wav,168,4,1.161086250009248,5050,1,2025-11-26_20-31-26,rædsel,31.292517,81.746032,52.494331,Female,Angry,"3,55"
173,AM26ANS.JPG,SILENCE,no-prime,babble_53.wav,taber_reversed.wav,feber_reversed.wav,169,3,3.211010625003837,5050,1,2025-11-26_20-31-26,SILENCE,,,,Male,Angry,"2,77"
155,AF20HAS.JPG,SILENCE,no-prime,babble_41.wav,giftig_reversed.wav,sæde_reversed.wav,170,9,1.8964034169912336,5050,1,2025-11-26_20-31-26,SILENCE,,,,Female,Happy,"5,69"
141,AF01HAS.JPG,fase_compressed.wav,neutral,babble_2.wav,selvmord_reversed.wav,finger_reversed.wav,171,8,1.3568932080088416,5050,1,2025-11-26_20-31-26,fase,58.61678,45.124717,52.721088,Female,Happy,"5,81"
32,AF03ANS.JPG,sandhed_compressed.wav,positive,babble_23.wav,slave_reversed.wav,genstand_reversed.wav,172,3,2.127430209002341,5050,1,2025-11-26_20-31-26,sandhed,88.435374,56.689342,73.356009,Female,Angry,"2,89"
86,AM10ANS.JPG,beundret_compressed.wav,positive,babble_69.wav,succes_reversed.wav,blomstre_reversed.wav,173,3,0.8999889999977313,5050,1,2025-11-26_20-31-26,beundret,87.755102,69.274376,85.37415,Male,Angry,"1,87"
181,AM09ANS.JPG,utro_compressed.wav,negative,babble_80.wav,lækker_reversed.wav,diamant_reversed.wav,174,2,2.3122724580025533,5050,1,2025-11-26_20-31-26,utro,23.24263,70.294785,34.240363,Male,Angry,"2,11"
19,AF20ANS.JPG,SILENCE,no-prime,babble_19.wav,genert_reversed.wav,gratis_reversed.wav,175,3,2.181568749991129,5050,1,2025-11-26_20-31-26,SILENCE,,,,Female,Angry,"2,28"
101,AM02ANS.JPG,magisk_compressed.wav,positive,babble_70.wav,ugle_reversed.wav,varme_reversed.wav,176,2,2.31889000000956,5050,1,2025-11-26_20-31-26,magisk,84.580499,67.460317,64.965986,Male,Angry,"2,44"
165,AF24HAS.JPG,kage_compressed.wav,positive,babble_0.wav,pervers_reversed.wav,spænding_reversed.wav,177,8,0.6004440419928869,5050,1,2025-11-26_20-31-26,kage,82.312925,56.689342,58.503401,Female,Happy,"6,18"
2,AF34ANS.JPG,utro_compressed.wav,negative,babble_66.wav,smerte_reversed.wav,banner_reversed.wav,178,9,2.373815667000599,5050,1,2025-11-26_20-31-26,utro,23.24263,70.294785,34.240363,Female,Angry,"3,12"
28,AF02NES.JPG,feber_compressed.wav,negative,babble_88.wav,himmel_reversed.wav,vandfald_reversed.wav,179,3,3.2464199580135755,5050,1,2025-11-26_20-31-26,feber,31.292517,48.639456,39.909297,Female,Neutral,"3,69"
154,AM17NES.JPG,nonne_compressed.wav,neutral,babble_80.wav,frihed_reversed.wav,vandfald_reversed.wav,180,3,0.8133396249904763,5050,1,2025-11-26_20-31-26,nonne,55.895692,33.219955,55.895692,Male,Neutral,"3,61"
132,AM01ANS.JPG,SILENCE,no-prime,babble_88.wav,salat_reversed.wav,taber_reversed.wav,181,4,1.276050333006424,5050,1,2025-11-26_20-31-26,SILENCE,,,,Male,Angry,"2,83"
198,AM18HAS.JPG,tilfreds_compressed.wav,positive,babble_72.wav,flirte_reversed.wav,konkurs_reversed.wav,182,8,0.8408493750030175,5050,1,2025-11-26_20-31-26,tilfreds,90.022676,56.00907,69.614512,Male,Happy,"5,26"
63,AM01HAS.JPG,djævel_compressed.wav,negative,babble_70.wav,knude_reversed.wav,gaffel_reversed.wav,183,7,0.5007045419915812,5050,1,2025-11-26_20-31-26,djævel,25.056689,68.820862,60.657596,Male,Happy,"5,64"
47,AM18NES.JPG,poesi_compressed.wav,neutral,babble_88.wav,søsyg_reversed.wav,beskidt_reversed.wav,184,5,0.5510894589970121,5050,1,2025-11-26_20-31-26,poesi,66.439909,45.351474,60.204082,Male,Neutral,"3,55"
89,AF28NES.JPG,nonne_compressed.wav,neutral,babble_23.wav,modgang_reversed.wav,oprørt_reversed.wav,185,3,2.417887333998806,5050,1,2025-11-26_20-31-26,nonne,55.895692,33.219955,55.895692,Female,Neutral,"3,81"
164,AM08HAS.JPG,patent_compressed.wav,neutral,babble_26.wav,museum_reversed.wav,putte_reversed.wav,186,8,0.7356852920056554,5050,1,2025-11-26_20-31-26,patent,59.977324,39.68254,55.555556,Male,Happy,"5,86"
197,AF34HAS.JPG,SILENCE,no-prime,babble_4.wav,utro_reversed.wav,himmel_reversed.wav,187,7,0.6034230410004966,5050,1,2025-11-26_20-31-26,SILENCE,,,,Female,Happy,"5,98"
125,AF09NES.JPG,rotte_compressed.wav,negative,babble_54.wav,gave_reversed.wav,hader_reversed.wav,188,4,1.0632742080051685,5050,1,2025-11-26_20-31-26,rotte,34.240363,56.122449,51.587302,Female,Neutral,"3,63"
156,AM27HAS.JPG,gade_compressed.wav,neutral,babble_27.wav,rabies_reversed.wav,voldtægt_reversed.wav,189,7,2.3899707919918,5050,1,2025-11-26_20-31-26,gade,59.183673,38.435374,54.535147,Male,Happy,"5,05"
65,AF31HAS.JPG,SILENCE,no-prime,babble_62.wav,kage_reversed.wav,skyldig_reversed.wav,190,6,2.6350100840063533,5050,1,2025-11-26_20-31-26,SILENCE,,,,Female,Happy,"5,60"
120,AF32ANS.JPG,succes_compressed.wav,positive,babble_95.wav,bange_reversed.wav,taber_reversed.wav,191,4,1.8412277919996995,5050,1,2025-11-26_20-31-26,succes,93.99093,69.274376,78.117914,Female,Angry,"3,31"
180,AF27HAS.JPG,forkert_compressed.wav,negative,babble_3.wav,skammel_reversed.wav,vindue_reversed.wav,192,9,0.3190444159990875,5050,1,2025-11-26_20-31-26,forkert,31.85941,55.895692,51.133787,Female,Happy,"6,10"
152,AF29HAS.JPG,plakat_compressed.wav,neutral,babble_43.wav,smerte_reversed.wav,forpint_reversed.wav,193,9,8.89696429099422,5050,1,2025-11-26_20-31-26,plakat,60.544218,44.557823,55.668934,Female,Happy,"5,48"
156,AF16ANS.JPG,succes_compressed.wav,positive,babble_34.wav,trofæ_reversed.wav,ledning_reversed.wav,-1,2,3.507877826690674,1234,1,2025-11-28_15-21-14,succes,93.99093,69.274376,78.117914,Female,Angry,"1,95"
114,AM15HAS.JPG,jubel_compressed.wav,positive,babble_70.wav,brænde_reversed.wav,pude_reversed.wav,-1,6,2.0176658630371094,1234,1,2025-11-28_15-21-14,jubel,91.836735,69.387755,68.027211,Male,Happy,"5,18"
11,AF20NES.JPG,oprørt_compressed.wav,negative,babble_83.wav,lyse_reversed.wav,putte_reversed.wav,-1,3,1.8024420738220213,1234,1,2025-11-28_15-21-14,oprørt,22.675737,66.439909,46.258503,Female,Neutral,"3,33"
145,AM04ANS.JPG,cirkel_compressed.wav,neutral,babble_47.wav,sexet_reversed.wav,pervers_reversed.wav,-1,3,1.786329984664917,1234,1,2025-11-28_15-21-14,cirkel,64.285714,43.764172,57.029478,Male,Angry,"2,44"
33,AF22ANS.JPG,SILENCE,no-prime,babble_87.wav,heldig_reversed.wav,magisk_reversed.wav,-1,3,0.888110876083374,1234,1,2025-11-28_15-21-14,SILENCE,,,,Female,Angry,"2,64"
78,AM28NES.JPG,væmmes_compressed.wav,negative,babble_32.wav,kontor_reversed.wav,lampe_reversed.wav,-1,5,2.3680670261383057,1234,1,2025-11-28_15-21-14,væmmes,27.777778,61.451247,49.206349,Male,Neutral,"3,52"
52,AF04NES.JPG,trofæ_compressed.wav,positive,babble_50.wav,boble_reversed.wav,rabies_reversed.wav,0,4,2.4748849868774414,1234,1,2025-11-28_15-21-14,trofæ,88.208617,61.111111,73.015873,Female,Neutral,"3,71"
32,AM17ANS.JPG,SILENCE,no-prime,babble_81.wav,engel_reversed.wav,rabies_reversed.wav,1,6,3.2046868801116943,1234,1,2025-11-28_15-21-14,SILENCE,,,,Male,Angry,"1,68"
129,AM13NES.JPG,sollys_compressed.wav,positive,babble_11.wav,sejre_reversed.wav,brænde_reversed.wav,2,5,0.434579849243164,1234,1,2025-11-28_15-21-14,sollys,87.981859,69.160998,63.8322,Male,Neutral,"4,03"
182,AF04ANS.JPG,knude_compressed.wav,neutral,babble_61.wav,syndig_reversed.wav,forpint_reversed.wav,3,2,2.5247390270233154,1234,1,2025-11-28_15-21-14,knude,52.60771,46.145125,52.947846,Female,Angry,"2,47"
4,AF13ANS.JPG,nedbrud_compressed.wav,negative,babble_77.wav,redskab_reversed.wav,forkert_reversed.wav,4,4,1.2021899223327637,1234,1,2025-11-28_15-21-14,nedbrud,26.190476,78.798186,39.002268,Female,Angry,"2,29"
183,AF07HAS.JPG,grimme_compressed.wav,negative,babble_51.wav,sæde_reversed.wav,tumor_reversed.wav,5,7,1.0148489475250244,1234,1,2025-11-28_15-21-14,grimme,27.55102,60.997732,48.29932,Female,Happy,"5,97"
3,AF05HAS.JPG,SILENCE,no-prime,babble_93.wav,maling_reversed.wav,hjerte_reversed.wav,6,6,0.6849370002746582,1234,1,2025-11-28_15-21-14,SILENCE,,,,Female,Happy,"5,78"
184,AF19NES.JPG,fedme_compressed.wav,negative,babble_9.wav,salat_reversed.wav,forkert_reversed.wav,7,5,0.751323938369751,1234,1,2025-11-28_15-21-14,fedme,30.952381,43.877551,42.403628,Female,Neutral,"3,64"
101,AM31NES.JPG,kæle_compressed.wav,positive,babble_79.wav,fjollet_reversed.wav,taber_reversed.wav,8,5,0.6825160980224609,1234,1,2025-11-28_15-21-14,kæle,87.528345,49.886621,66.326531,Male,Neutral,"4,14"
67,AM18NES.JPG,frihed_compressed.wav,positive,babble_54.wav,plakat_reversed.wav,poesi_reversed.wav,9,4,1.4548470973968506,1234,1,2025-11-28_15-21-14,frihed,90.47619,63.492063,71.315193,Male,Neutral,"3,55"
65,AM27HAS.JPG,mave_compressed.wav,neutral,babble_73.wav,bombe_reversed.wav,dæmon_reversed.wav,10,7,1.6351649761199951,1234,1,2025-11-28_15-21-14,mave,54.648526,44.557823,53.061224,Male,Happy,"5,05"
70,AM27ANS.JPG,magisk_compressed.wav,positive,babble_64.wav,luksus_reversed.wav,sejre_reversed.wav,11,3,1.4562299251556396,1234,1,2025-11-28_15-21-14,magisk,84.580499,67.460317,64.965986,Male,Angry,"3,00"
98,AM15NES.JPG,frihed_compressed.wav,positive,babble_80.wav,krise_reversed.wav,affald_reversed.wav,12,6,1.8664319515228271,1234,1,2025-11-28_15-21-14,frihed,90.47619,63.492063,71.315193,Male,Neutral,"3,59"
20,AF28ANS.JPG,ærlig_compressed.wav,positive,babble_59.wav,poesi_reversed.wav,luksus_reversed.wav,13,3,1.1507070064544678,1234,1,2025-11-28_15-21-14,ærlig,87.301587,60.31746,70.748299,Female,Angry,"2,12"
142,AM23NES.JPG,hånlig_compressed.wav,negative,babble_65.wav,sandhed_reversed.wav,himlen_reversed.wav,14,4,1.253777027130127,1234,1,2025-11-28_15-21-14,hånlig,34.240363,57.142857,52.040816,Male,Neutral,"3,31"
153,AM26NES.JPG,redskab_compressed.wav,neutral,babble_7.wav,sæde_reversed.wav,måned_reversed.wav,15,5,1.83713698387146,1234,1,2025-11-28_15-21-14,redskab,58.276644,40.47619,61.22449,Male,Neutral,"3,74"
17,AF02ANS.JPG,SILENCE,no-prime,babble_44.wav,kiste_reversed.wav,væmmes_reversed.wav,16,4,1.711578130722046,1234,1,2025-11-28_15-21-14,SILENCE,,,,Female,Angry,"2,67"
166,AF22NES.JPG,grimme_compressed.wav,negative,babble_28.wav,lækker_reversed.wav,rabies_reversed.wav,17,5,2.896350860595703,1234,1,2025-11-28_15-21-14,grimme,27.55102,60.997732,48.29932,Female,Neutral,"3,72"
71,AF29ANS.JPG,knude_compressed.wav,neutral,babble_89.wav,brænde_reversed.wav,fjendtlig_reversed.wav,18,4,0.6778669357299805,1234,1,2025-11-28_15-21-14,knude,52.60771,46.145125,52.947846,Female,Angry,"2,21"
83,AM12HAS.JPG,gratis_compressed.wav,positive,babble_3.wav,fremskridt_reversed.wav,vandal_reversed.wav,19,8,1.0271391868591309,1234,1,2025-11-28_15-21-14,gratis,93.650794,58.390023,71.995465,Male,Happy,"5,34"
1,AF06ANS.JPG,SILENCE,no-prime,babble_88.wav,dæmon_reversed.wav,frihed_reversed.wav,20,3,1.3944580554962158,1234,1,2025-11-28_15-21-14,SILENCE,,,,Female,Angry,"2,67"
168,AM12ANS.JPG,modgang_compressed.wav,negative,babble_54.wav,taber_reversed.wav,kedel_reversed.wav,21,2,2.7811570167541504,1234,1,2025-11-28_15-21-14,modgang,27.777778,53.968254,47.845805,Male,Angry,"2,66"
23,AF34NES.JPG,voldtægt_compressed.wav,negative,babble_83.wav,sejre_reversed.wav,fængsel_reversed.wav,22,2,1.2806289196014404,1234,1,2025-11-28_15-21-14,voldtægt,14.172336,77.210884,33.673469,Female,Neutral,"4,00"
108,AM11ANS.JPG,fjendtlig_compressed.wav,negative,babble_83.wav,spise_reversed.wav,heldig_reversed.wav,23,4,2.1902518272399902,1234,1,2025-11-28_15-21-14,fjendtlig,30.952381,73.015873,54.988662,Male,Angry,"2,47"
193,AF30HAS.JPG,sexet_compressed.wav,positive,babble_71.wav,frygtsom_reversed.wav,hader_reversed.wav,24,5,1.1781210899353027,1234,1,2025-11-28_15-21-14,sexet,90.929705,83.446712,77.324263,Female,Happy,"5,80"
102,AM34ANS.JPG,SILENCE,no-prime,babble_87.wav,ketchup_reversed.wav,offer_reversed.wav,25,3,5.503730773925781,1234,1,2025-11-28_15-21-14,SILENCE,,,,Male,Angry,"2,69"
18,AF17ANS.JPG,luksus_compressed.wav,positive,babble_15.wav,accept_reversed.wav,fedme_reversed.wav,26,3,1.1790988445281982,1234,1,2025-11-28_15-21-14,luksus,89.342404,53.854875,72.562358,Female,Angry,"2,18"
195,AM32ANS.JPG,feber_compressed.wav,negative,babble_87.wav,putte_reversed.wav,koldbrand_reversed.wav,27,5,4.429254055023193,1234,1,2025-11-28_15-21-14,feber,31.292517,48.639456,39.909297,Male,Angry,"2,21"
130,AM16NES.JPG,viden_compressed.wav,positive,babble_36.wav,nonne_reversed.wav,jubel_reversed.wav,28,6,1.503385066986084,1234,1,2025-11-28_15-21-14,viden,85.941043,67.120181,76.870748,Male,Neutral,"3,29"
63,AF19ANS.JPG,SILENCE,no-prime,babble_37.wav,opstemt_reversed.wav,nøgle_reversed.wav,29,5,2.1218810081481934,1234,1,2025-11-28_15-21-14,SILENCE,,,,Female,Angry,"2,79"
25,AF15ANS.JPG,ledning_compressed.wav,neutral,babble_99.wav,slagtning_reversed.wav,ketchup_reversed.wav,30,6,0.6120269298553467,1234,1,2025-11-28_15-21-14,ledning,57.823129,40.136054,56.689342,Female,Angry,"2,53"
169,AM09ANS.JPG,beundret_compressed.wav,positive,babble_10.wav,sandhed_reversed.wav,blodig_reversed.wav,31,1,0.7916650772094727,1234,1,2025-11-28_15-21-14,beundret,87.755102,69.274376,85.37415,Male,Angry,"2,11"
121,AM02ANS.JPG,feber_compressed.wav,negative,babble_54.wav,gaffel_reversed.wav,forfald_reversed.wav,32,3,16.781626224517822,1234,1,2025-11-28_15-21-14,feber,31.292517,48.639456,39.909297,Male,Angry,"2,44"
181,AM03NES.JPG,SILENCE,no-prime,babble_41.wav,rigdom_reversed.wav,succes_reversed.wav,33,5,9.897432088851929,1234,1,2025-11-28_15-21-14,SILENCE,,,,Male,Neutral,"3,58"
186,AM17HAS.JPG,SILENCE,no-prime,babble_54.wav,bifald_reversed.wav,pjece_reversed.wav,34,8,2.008463859558105,1234,1,2025-11-28_15-21-14,SILENCE,,,,Male,Happy,"5,39"
22,AF03ANS.JPG,ferie_compressed.wav,positive,babble_55.wav,putte_reversed.wav,hjerte_reversed.wav,35,2,1.1130690574645996,1234,1,2025-11-28_15-21-14,ferie,92.517007,63.945578,77.097506,Female,Angry,"2,89"
157,AF24ANS.JPG,hårnål_compressed.wav,neutral,babble_22.wav,venlig_reversed.wav,flirte_reversed.wav,36,4,0.8466989994049072,1234,1,2025-11-28_15-21-14,hårnål,59.637188,37.07483,57.256236,Female,Angry,"2,95"
180,AM08HAS.JPG,ledning_compressed.wav,neutral,babble_46.wav,statue_reversed.wav,hage_reversed.wav,37,6,1.190505027770996,1234,1,2025-11-28_15-21-14,ledning,57.823129,40.136054,56.689342,Male,Happy,"5,86"
136,AF11NES.JPG,morder_compressed.wav,negative,babble_3.wav,himlen_reversed.wav,borddug_reversed.wav,38,5,1.1001310348510742,1234,1,2025-11-28_15-21-14,morder,17.346939,84.693878,42.743764,Female,Neutral,"3,22"
176,AM24HAS.JPG,afskyr_compressed.wav,negative,babble_66.wav,baby_reversed.wav,bombe_reversed.wav,39,7,0.9049460887908936,1234,1,2025-11-28_15-21-14,afskyr,24.603175,68.707483,66.099773,Male,Happy,"5,77"
198,AF23ANS.JPG,SILENCE,no-prime,babble_14.wav,tilfreds_reversed.wav,misbrug_reversed.wav,40,4,1.7781100273132324,1234,1,2025-11-28_15-21-14,SILENCE,,,,Female,Angry,"2,54"
68,AM07ANS.JPG,banner_compressed.wav,neutral,babble_70.wav,gaffel_reversed.wav,grusom_reversed.wav,41,2,0.2945690155029297,1234,1,2025-11-28_15-21-14,banner,61.22449,43.424036,54.421769,Male,Angry,"2,14"
131,AM21ANS.JPG,boble_compressed.wav,neutral,babble_91.wav,violin_reversed.wav,skuffe_reversed.wav,42,2,0.668874979019165,1234,1,2025-11-28_15-21-14,boble,55.442177,44.671202,51.814059,Male,Angry,"2,69"
85,AF32NES.JPG,fjendtlig_compressed.wav,negative,babble_81.wav,nonsens_reversed.wav,venlig_reversed.wav,43,5,0.8308298587799072,1234,1,2025-11-28_15-21-14,fjendtlig,30.952381,73.015873,54.988662,Female,Neutral,"3,79"
133,AM26HAS.JPG,hånlig_compressed.wav,negative,babble_56.wav,forpint_reversed.wav,kujon_reversed.wav,44,7,1.512319803237915,1234,1,2025-11-28_15-21-14,hånlig,34.240363,57.142857,52.040816,Male,Happy,"5,56"
173,AM34HAS.JPG,pervers_compressed.wav,negative,babble_56.wav,skyldig_reversed.wav,væmmes_reversed.wav,45,6,1.3185489177703855,1234,1,2025-11-28_15-21-14,pervers,31.632653,70.975057,53.514739,Male,Happy,"5,50"
99,AF20HAS.JPG,motor_compressed.wav,neutral,babble_1.wav,pjece_reversed.wav,giftig_reversed.wav,46,7,1.2805039882659912,1234,1,2025-11-28_15-21-14,motor,58.956916,45.124717,56.689342,Female,Happy,"5,69"
66,AF18HAS.JPG,sikker_compressed.wav,positive,babble_11.wav,søsyg_reversed.wav,plakat_reversed.wav,47,8,0.764646053314209,1234,1,2025-11-28_15-21-14,sikker,85.827664,35.600907,67.23356,Female,Happy,"5,97"
58,AF22HAS.JPG,beundret_compressed.wav,positive,babble_87.wav,skuffe_reversed.wav,fase_reversed.wav,48,7,1.2315521240234375,1234,1,2025-11-28_15-21-14,beundret,87.755102,69.274376,85.37415,Female,Happy,"5,92"
158,AM18HAS.JPG,boble_compressed.wav,neutral,babble_55.wav,selvmord_reversed.wav,modgang_reversed.wav,49,6,9.511883020401,1234,1,2025-11-28_15-21-14,boble,55.442177,44.671202,51.814059,Male,Happy,"5,26"
84,AM01NES.JPG,avis_compressed.wav,neutral,babble_55.wav,ørken_reversed.wav,rotte_reversed.wav,50,5,3.6245288848876953,1234,1,2025-11-28_15-21-14,avis,58.276644,45.918367,59.637188,Male,Neutral,"3,91"
163,AF32HAS.JPG,illoyal_compressed.wav,negative,babble_27.wav,latter_reversed.wav,hader_reversed.wav,51,8,0.651141881942749,1234,1,2025-11-28_15-21-14,illoyal,21.882086,74.376417,42.970522,Female,Happy,"5,81"
161,AM05ANS.JPG,beundret_compressed.wav,positive,babble_3.wav,voldtægt_reversed.wav,ankel_reversed.wav,52,4,1.102301836013794,1234,1,2025-11-28_15-21-14,beundret,87.755102,69.274376,85.37415,Male,Angry,"2,28"
144,AF26NES.JPG,dollar_compressed.wav,positive,babble_10.wav,genert_reversed.wav,smerte_reversed.wav,53,5,0.4914472103118896,1234,1,2025-11-28_15-21-14,dollar,84.693878,68.820862,71.768707,Female,Neutral,"3,74"
164,AF15NES.JPG,kedel_compressed.wav,neutral,babble_44.wav,succes_reversed.wav,ledning_reversed.wav,54,6,1.167712926864624,1234,1,2025-11-28_15-21-14,kedel,59.183673,36.507937,56.689342,Female,Neutral,"3,37"
92,AF01ANS.JPG,djævel_compressed.wav,negative,babble_0.wav,succes_reversed.wav,kærtegn_reversed.wav,55,4,2.310463190078736,1234,1,2025-11-28_15-21-14,djævel,25.056689,68.820862,60.657596,Female,Angry,"2,53"
30,AM06NES.JPG,putte_compressed.wav,positive,babble_38.wav,gave_reversed.wav,albue_reversed.wav,56,5,0.5176949501037598,1234,1,2025-11-28_15-21-14,putte,89.795918,47.165533,64.172336,Male,Neutral,"3,83"
19,AF07NES.JPG,krise_compressed.wav,negative,babble_72.wav,kedel_reversed.wav,dæmpet_reversed.wav,57,5,1.855131149291992,1234,1,2025-11-28_15-21-14,krise,31.06576,61.678005,40.816327,Female,Neutral,"3,94"
119,AF35HAS.JPG,venlig_compressed.wav,positive,babble_40.wav,luksus_reversed.wav,mave_reversed.wav,58,7,1.0910589694976809,1234,1,2025-11-28_15-21-14,venlig,95.578231,57.936508,67.120181,Female,Happy,"6,31"
12,AM10NES.JPG,gratis_compressed.wav,positive,babble_46.wav,affald_reversed.wav,accept_reversed.wav,59,4,1.0032460689544678,1234,1,2025-11-28_15-21-14,gratis,93.650794,58.390023,71.995465,Male,Neutral,"3,89"
62,AM14NES.JPG,fængsel_compressed.wav,negative,babble_83.wav,natur_reversed.wav,ferie_reversed.wav,60,5,0.6605818271636963,1234,1,2025-11-28_15-21-14,fængsel,23.24263,64.62585,47.619048,Male,Neutral,"3,66"
100,AF33ANS.JPG,baby_compressed.wav,positive,babble_75.wav,succes_reversed.wav,statue_reversed.wav,61,2,1.1966221332550049,1234,1,2025-11-28_15-21-14,baby,93.197279,62.698413,56.689342,Female,Angry,"3,55"
57,AF16NES.JPG,SILENCE,no-prime,babble_78.wav,mester_reversed.wav,genstand_reversed.wav,62,5,1.6533498764038086,1234,1,2025-11-28_15-21-14,SILENCE,,,,Female,Neutral,"3,41"
177,AM31HAS.JPG,viden_compressed.wav,positive,babble_27.wav,fase_reversed.wav,vandal_reversed.wav,63,7,0.6997160911560059,1234,1,2025-11-28_15-21-14,viden,85.941043,67.120181,76.870748,Male,Happy,"5,38"
49,AF09HAS.JPG,vinde_compressed.wav,positive,babble_92.wav,forpint_reversed.wav,gave_reversed.wav,64,8,0.7628259658813477,1234,1,2025-11-28_15-21-14,vinde,95.011338,87.528345,83.786848,Female,Happy,"5,34"
80,AM35HAS.JPG,voldsom_compressed.wav,negative,babble_42.wav,forfald_reversed.wav,lampe_reversed.wav,65,7,1.1958951950073242,1234,1,2025-11-28_15-21-14,voldsom,25.963719,78.117914,58.503401,Male,Happy,"5,57"
141,AF17HAS.JPG,museum_compressed.wav,neutral,babble_83.wav,flirte_reversed.wav,kontor_reversed.wav,66,7,3.3319530487060547,1234,1,2025-11-28_15-21-14,museum,62.811791,40.816327,60.31746,Female,Happy,"6,18"
87,AM25HAS.JPG,fjollet_compressed.wav,positive,babble_43.wav,kontor_reversed.wav,nonne_reversed.wav,67,7,2.749850034713745,1234,1,2025-11-28_15-21-14,fjollet,84.013605,66.666667,68.027211,Male,Happy,"5,90"
178,AM20ANS.JPG,minder_compressed.wav,positive,babble_16.wav,finger_reversed.wav,sygdom_reversed.wav,68,3,0.9248058795928956,1234,1,2025-11-28_15-21-14,minder,84.807256,69.160998,66.666667,Male,Angry,"2,90"
86,AF32ANS.JPG,lækker_compressed.wav,positive,babble_62.wav,salat_reversed.wav,gave_reversed.wav,69,2,1.033010959625244,1234,1,2025-11-28_15-21-14,lækker,85.034014,60.544218,64.399093,Female,Angry,"3,31"
109,AM05NES.JPG,redning_compressed.wav,positive,babble_38.wav,røver_reversed.wav,museum_reversed.wav,70,3,2.957350969314575,1234,1,2025-11-28_15-21-14,redning,87.301587,74.036281,73.129252,Male,Neutral,"3,53"
93,AF27NES.JPG,SILENCE,no-prime,babble_71.wav,pervers_reversed.wav,kedel_reversed.wav,71,5,22.123008966445923,1234,1,2025-11-28_15-21-14,SILENCE,,,,Female,Neutral,"3,86"
175,AM27NES.JPG,sexet_compressed.wav,positive,babble_23.wav,himlen_reversed.wav,redskab_reversed.wav,72,5,2.2806310653686523,1234,1,2025-11-28_15-21-14,sexet,90.929705,83.446712,77.324263,Male,Neutral,"3,54"
7,AF31HAS.JPG,borddug_compressed.wav,neutral,babble_95.wav,albue_reversed.wav,violin_reversed.wav,73,3,1.6539599895477295,1234,1,2025-11-28_15-21-14,borddug,55.895692,37.07483,56.122449,Female,Happy,"5,60"
91,AM11HAS.JPG,SILENCE,no-prime,babble_92.wav,lyse_reversed.wav,humor_reversed.wav,74,7,0.7927589416503906,1234,1,2025-11-28_15-21-14,SILENCE,,,,Male,Happy,"5,82"
75,AF08NES.JPG,minder_compressed.wav,positive,babble_88.wav,offer_reversed.wav,succes_reversed.wav,75,5,0.4035639762878418,1234,1,2025-11-28_15-21-14,minder,84.807256,69.160998,66.666667,Female,Neutral,"3,56"
42,AM08NES.JPG,violin_compressed.wav,neutral,babble_9.wav,gave_reversed.wav,stjerne_reversed.wav,76,5,0.1441760063171386,1234,1,2025-11-28_15-21-14,violin,61.564626,39.569161,58.730159,Male,Neutral,"3,83"
5,AF03NES.JPG,brutal_compressed.wav,negative,babble_6.wav,gade_reversed.wav,accept_reversed.wav,77,5,0.7482719421386719,1234,1,2025-11-28_15-21-14,brutal,31.746032,74.829932,52.040816,Female,Neutral,"3,78"
45,AM01HAS.JPG,gratis_compressed.wav,positive,babble_12.wav,væmmes_reversed.wav,ensom_reversed.wav,78,7,0.8833210468292236,1234,1,2025-11-28_15-21-14,gratis,93.650794,58.390023,71.995465,Male,Happy,"5,64"
27,AM23HAS.JPG,gidsel_compressed.wav,negative,babble_47.wav,finger_reversed.wav,beskidt_reversed.wav,79,8,0.8469481468200684,1234,1,2025-11-28_15-21-14,gidsel,24.943311,76.643991,32.086168,Male,Happy,"5,67"
155,AF21ANS.JPG,oprør_compressed.wav,negative,babble_30.wav,lampe_reversed.wav,giftig_reversed.wav,80,2,1.5047900676727295,1234,1,2025-11-28_15-21-14,oprør,33.560091,72.44898,47.39229,Female,Angry,"2,28"
88,AM14HAS.JPG,hånlig_compressed.wav,negative,babble_99.wav,ketchup_reversed.wav,ledning_reversed.wav,81,8,1.4104549884796145,1234,1,2025-11-28_15-21-14,hånlig,34.240363,57.142857,52.040816,Male,Happy,"5,03"
46,AM04HAS.JPG,røver_compressed.wav,negative,babble_32.wav,smerte_reversed.wav,fjollet_reversed.wav,82,7,0.7015500068664551,1234,1,2025-11-28_15-21-14,røver,29.591837,63.718821,41.043084,Male,Happy,"5,80"
105,AF19HAS.JPG,skønhed_compressed.wav,positive,babble_37.wav,latter_reversed.wav,papir_reversed.wav,83,7,0.5063478946685791,1234,1,2025-11-28_15-21-14,skønhed,88.662132,56.122449,62.698413,Female,Happy,"6,10"
38,AF35ANS.JPG,offer_compressed.wav,negative,babble_33.wav,vandal_reversed.wav,brænde_reversed.wav,84,3,0.7251479625701904,1234,1,2025-11-28_15-21-14,offer,24.716553,68.707483,30.498866,Female,Angry,"2,76"
72,AF07ANS.JPG,ærlig_compressed.wav,positive,babble_64.wav,kæle_reversed.wav,søsyg_reversed.wav,85,2,0.7838129997253418,1234,1,2025-11-28_15-21-14,ærlig,87.301587,60.31746,70.748299,Female,Angry,"2,44"
77,AM26ANS.JPG,SILENCE,no-prime,babble_26.wav,himlen_reversed.wav,affald_reversed.wav,86,3,1.2808358669281006,1234,1,2025-11-28_15-21-14,SILENCE,,,,Male,Angry,"2,77"
146,AF08HAS.JPG,SILENCE,no-prime,babble_44.wav,mester_reversed.wav,taxa_reversed.wav,87,5,1.3772168159484863,1234,1,2025-11-28_15-21-14,SILENCE,,,,Female,Happy,"5,29"
196,AF08ANS.JPG,bombe_compressed.wav,negative,babble_72.wav,latter_reversed.wav,konge_reversed.wav,88,4,0.6784231662750244,1234,1,2025-11-28_15-21-14,bombe,23.809524,81.06576,51.473923,Female,Angry,"3,00"
47,AM09NES.JPG,vandal_compressed.wav,negative,babble_30.wav,leder_reversed.wav,museum_reversed.wav,89,3,0.710597038269043,1234,1,2025-11-28_15-21-14,vandal,30.725624,72.562358,44.331066,Male,Neutral,"3,71"
110,AM03HAS.JPG,lyse_compressed.wav,positive,babble_47.wav,vandfald_reversed.wav,talent_reversed.wav,90,6,1.0438010692596436,1234,1,2025-11-28_15-21-14,lyse,85.034014,61.22449,71.882086,Male,Happy,"5,17"
