signal_type,compression_level,prime_file,correct_word,babbling_file,mask1_file,mask2_file,practice.thisRepN,practice.thisTrialN,practice.thisN,practice.thisIndex,main.thisRepN,main.thisTrialN,main.thisN,main.thisIndex,thisRow.t,notes,response_key,rt,trial_outcome,babble_duration,Participant ID,Session,date,
absent,0.1,SILENCE,NA,babble_0.wav,talent_reversed.wav,varme_reversed.wav,0,0,0,0,0,-1,-1,0,,,z,5.543426400003227,Correct Rejection,0.8364875941527998,2011,001,2025-11-20_15-05-10,
present,0.4,skuffe_compressed.wav,skuffe,babble_44.wav,frygtsom_reversed.wav,syndig_reversed.wav,0,1,1,1,0,-1,-1,0,,,z,1.8146234000014374,Miss,0.8049638928716377,2011,001,2025-11-20_15-05-10,
present,0.7,blomstre_compressed.wav,blomstre,babble_36.wav,brænde_reversed.wav,utro_reversed.wav,0,2,2,2,0,-1,-1,0,,,m,0.6936819000002288,Hit,1.3719730819663165,2011,001,2025-11-20_15-05-10,
present,0.3,gave_compressed.wav,gave,babble_99.wav,hage_reversed.wav,konkurs_reversed.wav,0,3,3,3,0,-1,-1,0,,,z,2.480512300000555,Miss,0.9604833110419747,2011,001,2025-11-20_15-05-10,
absent,0.7,SILENCE,NA,babble_68.wav,nonne_reversed.wav,utro_reversed.wav,0,4,4,4,0,-1,-1,0,,,z,0.9842468000024382,Correct Rejection,0.6393359583823599,2011,001,2025-11-20_15-05-10,
absent,0.2,SILENCE,NA,babble_74.wav,metal_reversed.wav,ledning_reversed.wav,0,5,5,5,0,-1,-1,0,,,z,0.9430625000022701,Correct Rejection,0.7144730734849797,2011,001,2025-11-20_15-05-10,
present,0.5,søsyg_compressed.wav,søsyg,babble_93.wav,taber_reversed.wav,fremskridt_reversed.wav,0,6,6,6,0,-1,-1,0,,,m,0.7590774000018428,Hit,1.0928365616397864,2011,001,2025-11-20_15-05-10,
absent,0.5,SILENCE,NA,babble_28.wav,sikker_reversed.wav,heldig_reversed.wav,0,7,7,7,0,-1,-1,0,,,z,0.9954261000020779,Correct Rejection,1.206796348356129,2011,001,2025-11-20_15-05-10,
absent,0.6,SILENCE,NA,babble_78.wav,respekt_reversed.wav,spænding_reversed.wav,0,8,8,8,0,-1,-1,0,,,z,0.5155497000014293,Correct Rejection,1.3015646565631829,2011,001,2025-11-20_15-05-10,
present,0.2,frygtsom_compressed.wav,frygtsom,babble_30.wav,gidsel_reversed.wav,lyse_reversed.wav,0,9,9,9,0,-1,-1,0,,,m,0.5132459000014933,Hit,1.2374827604134722,2011,001,2025-11-20_15-05-10,
absent,0.4,SILENCE,NA,babble_91.wav,traume_reversed.wav,himmel_reversed.wav,0,10,10,10,0,-1,-1,0,,,z,0.5591242000009515,Correct Rejection,0.918944496512171,2011,001,2025-11-20_15-05-10,
present,0.1,bange_compressed.wav,bange,babble_48.wav,ugle_reversed.wav,museum_reversed.wav,0,11,11,11,0,-1,-1,0,,,m,0.5143542000005255,Hit,0.980897665360182,2011,001,2025-11-20_15-05-10,
present,0.6,ærlig_compressed.wav,ærlig,babble_23.wav,fase_reversed.wav,sæde_reversed.wav,0,12,12,12,0,-1,-1,0,,,z,3.0907971000015095,Miss,1.2191575963530155,2011,001,2025-11-20_15-05-10,
absent,0.3,SILENCE,NA,babble_28.wav,traume_reversed.wav,stjerne_reversed.wav,0,13,13,13,0,-1,-1,0,,,z,0.5707370000018273,Correct Rejection,1.318601754183791,2011,001,2025-11-20_15-05-10,
absent,0.1,SILENCE,NA,babble_48.wav,skade_reversed.wav,hage_reversed.wav,,,,,0,0,0,0,,,z,1.644086200001766,Correct Rejection,0.7577028699542002,2011,001,2025-11-20_15-05-10,
present,0.1,dæmon_compressed.wav,dæmon,babble_52.wav,sygdom_reversed.wav,sikker_reversed.wav,,,,,0,1,1,1,,,z,3.539789700000256,Miss,1.357359479006385,2011,001,2025-11-20_15-05-10,
present,0.6,regnbue_compressed.wav,regnbue,babble_36.wav,nøgle_reversed.wav,engel_reversed.wav,,,,,0,2,2,2,,,z,0.6052769999987504,Miss,1.3916931052407007,2011,001,2025-11-20_15-05-10,
absent,0.2,SILENCE,NA,babble_2.wav,sandhed_reversed.wav,jubel_reversed.wav,,,,,0,3,3,3,,,z,0.5880551000009291,Correct Rejection,0.7671011783922059,2011,001,2025-11-20_15-05-10,
absent,0.2,SILENCE,NA,babble_8.wav,slave_reversed.wav,tilfreds_reversed.wav,,,,,0,4,4,4,,,z,0.6419242999982089,Correct Rejection,0.5171132962334716,2011,001,2025-11-20_15-05-10,
absent,0.5,SILENCE,NA,babble_96.wav,gave_reversed.wav,putte_reversed.wav,,,,,0,5,5,5,,,z,0.5052090999997745,Correct Rejection,1.0270156429953885,2011,001,2025-11-20_15-05-10,
absent,0.1,SILENCE,NA,babble_66.wav,rotte_reversed.wav,bygning_reversed.wav,,,,,0,6,6,6,,,z,0.3962146000012581,Correct Rejection,0.9380101740300351,2011,001,2025-11-20_15-05-10,
present,0.3,tortur_compressed.wav,tortur,babble_17.wav,kærtegn_reversed.wav,drukne_reversed.wav,,,,,0,7,7,7,,,m,0.25455499999952735,Hit,1.0501059195843618,2011,001,2025-11-20_15-05-10,
present,0.5,sollys_compressed.wav,sollys,babble_13.wav,selvmord_reversed.wav,fedme_reversed.wav,,,,,0,8,8,8,,,z,0.3320579999999609,Miss,1.367708957051358,2011,001,2025-11-20_15-05-10,
present,0.2,kvæles_compressed.wav,kvæles,babble_96.wav,bygning_reversed.wav,baby_reversed.wav,,,,,0,9,9,9,,,z,2.179086299998744,Miss,1.3791627115130183,2011,001,2025-11-20_15-05-10,
present,0.7,intim_compressed.wav,intim,babble_14.wav,forkert_reversed.wav,motor_reversed.wav,,,,,0,10,10,10,,,z,0.43932589999894844,Miss,0.5567583588770844,2011,001,2025-11-20_15-05-10,
present,0.6,marked_compressed.wav,marked,babble_44.wav,kugle_reversed.wav,affald_reversed.wav,,,,,0,11,11,11,,,z,1.9396340000021155,Miss,0.8971650356929572,2011,001,2025-11-20_15-05-10,
absent,0.4,SILENCE,NA,babble_52.wav,succes_reversed.wav,nedbrud_reversed.wav,,,,,0,12,12,12,,,z,0.38467710000259103,Correct Rejection,0.7043688999888273,2011,001,2025-11-20_15-05-10,
present,0.5,pude_compressed.wav,pude,babble_16.wav,vinde_reversed.wav,festlig_reversed.wav,,,,,0,13,13,13,,,z,0.6848624999984168,Miss,1.235722688303213,2011,001,2025-11-20_15-05-10,
present,0.3,bombe_compressed.wav,bombe,babble_87.wav,sikker_reversed.wav,fængsel_reversed.wav,,,,,0,14,14,14,,,m,0.3157161000017368,Hit,0.5257619096692809,2011,001,2025-11-20_15-05-10,
absent,0.4,SILENCE,NA,babble_89.wav,søsyg_reversed.wav,brænde_reversed.wav,,,,,0,15,15,15,,,z,5.250625699998636,Correct Rejection,1.3846615759421144,2011,001,2025-11-20_15-05-10,
absent,0.4,SILENCE,NA,babble_41.wav,engel_reversed.wav,diamant_reversed.wav,,,,,0,16,16,16,,,z,1.2347324000002118,Correct Rejection,1.072297583664035,2011,001,2025-11-20_15-05-10,
absent,0.6,SILENCE,NA,babble_81.wav,fjendtlig_reversed.wav,kugle_reversed.wav,,,,,0,17,17,17,,,z,1.4542966999979399,Correct Rejection,1.0960339220199327,2011,001,2025-11-20_15-05-10,
absent,0.6,SILENCE,NA,babble_16.wav,ledning_reversed.wav,albue_reversed.wav,,,,,0,18,18,18,,,z,1.0769700999990164,Correct Rejection,0.7602537297755732,2011,001,2025-11-20_15-05-10,
absent,0.7,SILENCE,NA,babble_83.wav,pervers_reversed.wav,sygdom_reversed.wav,,,,,0,19,19,19,,,z,1.7196463000000222,Correct Rejection,0.5772209906193206,2011,001,2025-11-20_15-05-10,
present,0.3,hårnål_compressed.wav,hårnål,babble_93.wav,slave_reversed.wav,frygtsom_reversed.wav,,,,,0,20,20,20,,,m,3.99208020000151,Hit,0.9151046789474815,2011,001,2025-11-20_15-05-10,
absent,0.7,SILENCE,NA,babble_56.wav,søsyg_reversed.wav,albue_reversed.wav,,,,,0,21,21,21,,,z,0.48151299999881303,Correct Rejection,0.645066688318436,2011,001,2025-11-20_15-05-10,
present,0.2,afskyr_compressed.wav,afskyr,babble_77.wav,natur_reversed.wav,oprørt_reversed.wav,,,,,0,22,22,22,,,m,0.28200610000203596,Hit,0.9747015142374467,2011,001,2025-11-20_15-05-10,
absent,0.3,SILENCE,NA,babble_97.wav,søsyg_reversed.wav,offer_reversed.wav,,,,,0,23,23,23,,,z,1.4320654000002833,Correct Rejection,1.41047225952226,2011,001,2025-11-20_15-05-10,
present,0.6,fjendtlig_compressed.wav,fjendtlig,babble_12.wav,frygtsom_reversed.wav,morder_reversed.wav,,,,,0,24,24,24,,,z,1.4094025999984297,Miss,1.1742683962623588,2011,001,2025-11-20_15-05-10,
present,0.7,natur_compressed.wav,natur,babble_76.wav,hjerte_reversed.wav,varme_reversed.wav,,,,,0,25,25,25,,,m,0.7985902000000351,Hit,0.514295493824919,2011,001,2025-11-20_15-05-10,
absent,0.4,SILENCE,NA,babble_74.wav,kage_reversed.wav,sollys_reversed.wav,,,,,0,26,26,26,,,z,1.2684310000004189,Correct Rejection,1.2343057541051856,2011,001,2025-11-20_15-05-10,
absent,0.6,SILENCE,NA,babble_79.wav,rabies_reversed.wav,albue_reversed.wav,,,,,0,27,27,27,,,z,0.7521056999976281,Correct Rejection,0.8226669600781499,2011,001,2025-11-20_15-05-10,
absent,0.7,SILENCE,NA,babble_7.wav,putte_reversed.wav,nonsens_reversed.wav,,,,,0,28,28,28,,,z,0.6794668000002275,Correct Rejection,0.652164010789007,2011,001,2025-11-20_15-05-10,
absent,0.4,SILENCE,NA,babble_8.wav,vinde_reversed.wav,poesi_reversed.wav,,,,,0,29,29,29,,,z,0.7170143000003009,Correct Rejection,0.7668469934683745,2011,001,2025-11-20_15-05-10,
absent,0.1,SILENCE,NA,babble_74.wav,beskidt_reversed.wav,taxa_reversed.wav,,,,,0,30,30,30,,,z,0.5701636000012513,Correct Rejection,1.4880512014710412,2011,001,2025-11-20_15-05-10,
absent,0.1,SILENCE,NA,babble_40.wav,redning_reversed.wav,frihed_reversed.wav,,,,,0,31,31,31,,,m,1.0697197999979835,False Alarm,0.5852283523151732,2011,001,2025-11-20_15-05-10,
present,0.4,avis_compressed.wav,avis,babble_68.wav,museum_reversed.wav,tilfreds_reversed.wav,,,,,0,32,32,32,,,m,0.37456070000189357,Hit,0.9888609786907512,2011,001,2025-11-20_15-05-10,
absent,0.4,SILENCE,NA,babble_51.wav,lyse_reversed.wav,syndig_reversed.wav,,,,,0,33,33,33,,,m,2.737246000000596,False Alarm,1.2523245206922764,2011,001,2025-11-20_15-05-10,
absent,0.4,SILENCE,NA,babble_67.wav,skuffe_reversed.wav,fremskridt_reversed.wav,,,,,0,34,34,34,,,z,0.5026952999978676,Correct Rejection,1.0441643693641862,2011,001,2025-11-20_15-05-10,
present,0.7,forkert_compressed.wav,forkert,babble_44.wav,selvmord_reversed.wav,mave_reversed.wav,,,,,0,35,35,35,,,z,1.4077536999975564,Miss,0.7709377627079947,2011,001,2025-11-20_15-05-10,
absent,0.5,SILENCE,NA,babble_85.wav,modgang_reversed.wav,skyldig_reversed.wav,,,,,0,36,36,36,,,z,0.6634874999981548,Correct Rejection,1.0693216638467387,2011,001,2025-11-20_15-05-10,
present,0.4,sikker_compressed.wav,sikker,babble_93.wav,ferie_reversed.wav,ensom_reversed.wav,,,,,0,37,37,37,,,m,0.7143474999975297,Hit,0.8319847498665114,2011,001,2025-11-20_15-05-10,
absent,0.7,SILENCE,NA,babble_29.wav,borddug_reversed.wav,gave_reversed.wav,,,,,0,38,38,38,,,z,2.117682899999636,Correct Rejection,1.3984182562638103,2011,001,2025-11-20_15-05-10,
absent,0.4,SILENCE,NA,babble_35.wav,opstemt_reversed.wav,dollar_reversed.wav,,,,,0,39,39,39,,,z,1.6071835000002466,Correct Rejection,0.592443459989343,2011,001,2025-11-20_15-05-10,
present,0.7,rådden_compressed.wav,rådden,babble_43.wav,traume_reversed.wav,skuffe_reversed.wav,,,,,0,40,40,40,,,m,0.34858359999998356,Hit,0.8612217877444159,2011,001,2025-11-20_15-05-10,
present,0.4,affald_compressed.wav,affald,babble_17.wav,utro_reversed.wav,nonsens_reversed.wav,,,,,0,41,41,41,,,z,1.3804280999975163,Miss,1.100269050566727,2011,001,2025-11-20_15-05-10,
present,0.1,tumor_compressed.wav,tumor,babble_50.wav,heldig_reversed.wav,himmel_reversed.wav,,,,,0,42,42,42,,,m,1.0263906000000134,Hit,0.688938745056478,2011,001,2025-11-20_15-05-10,
present,0.3,ønske_compressed.wav,ønske,babble_24.wav,slagtning_reversed.wav,bifald_reversed.wav,,,,,0,43,43,43,,,m,1.381904999998369,Hit,1.3288257507911592,2011,001,2025-11-20_15-05-10,
present,0.6,cirkus_compressed.wav,cirkus,babble_12.wav,gade_reversed.wav,koldbrand_reversed.wav,,,,,0,44,44,44,,,m,0.4214973000016471,Hit,1.043244099243053,2011,001,2025-11-20_15-05-10,
absent,0.7,SILENCE,NA,babble_16.wav,sexet_reversed.wav,genstand_reversed.wav,,,,,0,45,45,45,,,z,1.1491248999991512,Correct Rejection,0.8236027572635104,2011,001,2025-11-20_15-05-10,
present,0.6,kæle_compressed.wav,kæle,babble_32.wav,konkurs_reversed.wav,dollar_reversed.wav,,,,,0,46,46,46,,,z,0.47553790000165463,Miss,0.5201143280490751,2011,001,2025-11-20_15-05-10,
absent,0.7,SILENCE,NA,babble_79.wav,gade_reversed.wav,ensom_reversed.wav,,,,,0,47,47,47,,,z,0.8141993999997794,Correct Rejection,0.7451484632852315,2011,001,2025-11-20_15-05-10,
absent,0.4,SILENCE,NA,babble_36.wav,tumor_reversed.wav,himmel_reversed.wav,,,,,0,48,48,48,,,z,0.7763731999984884,Correct Rejection,0.5415593747572224,2011,001,2025-11-20_15-05-10,
absent,0.1,SILENCE,NA,babble_15.wav,rigdom_reversed.wav,forfald_reversed.wav,,,,,0,49,49,49,,,z,0.4162934999985737,Correct Rejection,1.0406495547760484,2011,001,2025-11-20_15-05-10,
absent,0.6,SILENCE,NA,babble_3.wav,ensom_reversed.wav,gaffel_reversed.wav,,,,,0,50,50,50,,,z,0.6412809999965248,Correct Rejection,0.5118255468717584,2011,001,2025-11-20_15-05-10,
present,0.1,misbrug_compressed.wav,misbrug,babble_67.wav,genstand_reversed.wav,sandhed_reversed.wav,,,,,0,51,51,51,,,m,0.32052099999782513,Hit,0.7585111277081525,2011,001,2025-11-20_15-05-10,
absent,0.3,SILENCE,NA,babble_61.wav,kiste_reversed.wav,syndig_reversed.wav,,,,,0,52,52,52,,,z,0.9255625999976473,Correct Rejection,0.6521594339478641,2011,001,2025-11-20_15-05-10,
present,0.1,avis_compressed.wav,avis,babble_55.wav,slave_reversed.wav,sollys_reversed.wav,,,,,0,53,53,53,,,m,0.6135904000002483,Hit,0.7478592767178045,2011,001,2025-11-20_15-05-10,
present,0.2,trussel_compressed.wav,trussel,babble_13.wav,ørken_reversed.wav,mester_reversed.wav,,,,,0,54,54,54,,,m,0.45526869999957853,Hit,1.498982051039245,2011,001,2025-11-20_15-05-10,
absent,0.2,SILENCE,NA,babble_9.wav,vinde_reversed.wav,enhed_reversed.wav,,,,,0,55,55,55,,,z,0.989063899996836,Correct Rejection,1.3965571720010965,2011,001,2025-11-20_15-05-10,
present,0.2,hånlig_compressed.wav,hånlig,babble_76.wav,fase_reversed.wav,taxa_reversed.wav,,,,,0,56,56,56,,,z,0.45773449999978766,Miss,1.4225572688305013,2011,001,2025-11-20_15-05-10,
present,0.5,skuffe_compressed.wav,skuffe,babble_31.wav,redskab_reversed.wav,forpint_reversed.wav,,,,,0,57,57,57,,,m,0.3406721000028483,Hit,0.9825489303832025,2011,001,2025-11-20_15-05-10,
present,0.1,plakat_compressed.wav,plakat,babble_99.wav,ugle_reversed.wav,ønske_reversed.wav,,,,,0,58,58,58,,,m,0.29755519999889657,Hit,1.2034671632536897,2011,001,2025-11-20_15-05-10,
present,0.1,forpint_compressed.wav,forpint,babble_78.wav,cirkel_reversed.wav,violin_reversed.wav,,,,,0,59,59,59,,,z,1.3265503000002354,Miss,0.7894912076531645,2011,001,2025-11-20_15-05-10,
absent,0.6,SILENCE,NA,babble_2.wav,heldig_reversed.wav,oprør_reversed.wav,,,,,0,60,60,60,,,z,1.0148331000018516,Correct Rejection,0.8597276951342416,2011,001,2025-11-20_15-05-10,
present,0.7,venlig_compressed.wav,venlig,babble_4.wav,leder_reversed.wav,selvmord_reversed.wav,,,,,0,61,61,61,,,m,0.4916704999996,Hit,1.4500623912074806,2011,001,2025-11-20_15-05-10,
absent,0.7,SILENCE,NA,babble_13.wav,jubel_reversed.wav,rigdom_reversed.wav,,,,,0,62,62,62,,,z,0.5991757000010693,Correct Rejection,0.7534560443963213,2011,001,2025-11-20_15-05-10,
absent,0.2,SILENCE,NA,babble_46.wav,giftig_reversed.wav,utro_reversed.wav,,,,,0,63,63,63,,,z,0.9963088999975298,Correct Rejection,1.0056454539081938,2011,001,2025-11-20_15-05-10,
absent,0.3,SILENCE,NA,babble_60.wav,skammel_reversed.wav,motor_reversed.wav,,,,,0,64,64,64,,,z,2.1293542999992496,Correct Rejection,0.9124656435724027,2011,001,2025-11-20_15-05-10,
absent,0.3,SILENCE,NA,babble_53.wav,trofæ_reversed.wav,bygning_reversed.wav,,,,,0,65,65,65,,,z,0.7008606999988842,Correct Rejection,1.355503943375429,2011,001,2025-11-20_15-05-10,
absent,0.7,SILENCE,NA,babble_12.wav,dæmon_reversed.wav,diamant_reversed.wav,,,,,0,66,66,66,,,z,1.6062764000016614,Correct Rejection,1.2796967433269857,2011,001,2025-11-20_15-05-10,
absent,0.6,SILENCE,NA,babble_26.wav,taxa_reversed.wav,rotte_reversed.wav,,,,,0,67,67,67,,,z,1.1486986999989313,Correct Rejection,1.3244145218778214,2011,001,2025-11-20_15-05-10,
present,0.5,rådden_compressed.wav,rådden,babble_25.wav,kærtegn_reversed.wav,ferie_reversed.wav,,,,,0,68,68,68,,,m,0.2629610000003595,Hit,0.5909968294526157,2011,001,2025-11-20_15-05-10,
absent,0.5,SILENCE,NA,babble_98.wav,kugle_reversed.wav,bombe_reversed.wav,,,,,0,69,69,69,,,z,1.2696546000006492,Correct Rejection,0.5173780315791924,2011,001,2025-11-20_15-05-10,
absent,0.4,SILENCE,NA,babble_99.wav,sindssyg_reversed.wav,dæmon_reversed.wav,,,,,0,70,70,70,,,z,1.9210372000015923,Correct Rejection,1.3750284053255455,2011,001,2025-11-20_15-05-10,
absent,0.3,SILENCE,NA,babble_76.wav,frihed_reversed.wav,venlig_reversed.wav,,,,,0,71,71,71,,,z,0.5182443999983661,Correct Rejection,1.1633641741073744,2011,001,2025-11-20_15-05-10,
present,0.4,succes_compressed.wav,succes,babble_53.wav,putte_reversed.wav,hånlig_reversed.wav,,,,,0,72,72,72,,,m,0.33082350000040606,Hit,1.2800087115159409,2011,001,2025-11-20_15-05-10,
absent,0.5,SILENCE,NA,babble_40.wav,dæmon_reversed.wav,kedel_reversed.wav,,,,,0,73,73,73,,,z,1.2119592999988527,Correct Rejection,0.5405351448242193,2011,001,2025-11-20_15-05-10,
present,0.4,kærtegn_compressed.wav,kærtegn,babble_73.wav,himlen_reversed.wav,plakat_reversed.wav,,,,,0,74,74,74,,,m,0.3559238000016194,Hit,0.9954723287588872,2011,001,2025-11-20_15-05-10,
absent,0.1,SILENCE,NA,babble_34.wav,ferie_reversed.wav,pervers_reversed.wav,,,,,0,75,75,75,,,z,0.9643795000010869,Correct Rejection,1.0209439920936214,2011,001,2025-11-20_15-05-10,
present,0.7,finger_compressed.wav,finger,babble_47.wav,tilfreds_reversed.wav,pude_reversed.wav,,,,,0,76,76,76,,,z,1.2963799999997718,Miss,0.6859246441868907,2011,001,2025-11-20_15-05-10,
present,0.4,tilfreds_compressed.wav,tilfreds,babble_48.wav,konge_reversed.wav,selvmord_reversed.wav,,,,,0,77,77,77,,,m,0.37887729999783915,Hit,1.310675631813645,2011,001,2025-11-20_15-05-10,
absent,0.5,SILENCE,NA,babble_63.wav,syndig_reversed.wav,accept_reversed.wav,,,,,0,78,78,78,,,z,0.7116071000018565,Correct Rejection,1.4960736750459207,2011,001,2025-11-20_15-05-10,
present,0.4,sandhed_compressed.wav,sandhed,babble_1.wav,hage_reversed.wav,dæmpet_reversed.wav,,,,,0,79,79,79,,,m,0.5056304999998247,Hit,1.1111030989901791,2011,001,2025-11-20_15-05-10,
present,0.3,kysse_compressed.wav,kysse,babble_64.wav,giftig_reversed.wav,opstemt_reversed.wav,,,,,0,80,80,80,,,m,0.4012887999997474,Hit,1.492116004068893,2011,001,2025-11-20_15-05-10,
present,0.3,sollys_compressed.wav,sollys,babble_21.wav,boble_reversed.wav,sindssyg_reversed.wav,,,,,0,81,81,81,,,m,1.1721190999996907,Hit,1.1394898976563295,2011,001,2025-11-20_15-05-10,
absent,0.2,SILENCE,NA,babble_32.wav,dæmon_reversed.wav,skønhed_reversed.wav,,,,,0,82,82,82,,,z,0.7691291000010096,Correct Rejection,1.0030982788175407,2011,001,2025-11-20_15-05-10,
absent,0.2,SILENCE,NA,babble_99.wav,ugle_reversed.wav,brænde_reversed.wav,,,,,0,83,83,83,,,z,1.1415583999987575,Correct Rejection,1.3786695370933102,2011,001,2025-11-20_15-05-10,
absent,0.1,SILENCE,NA,babble_84.wav,varme_reversed.wav,salat_reversed.wav,,,,,0,84,84,84,,,z,0.9311267000011867,Correct Rejection,0.5905016717396211,2011,001,2025-11-20_15-05-10,
present,0.7,fjollet_compressed.wav,fjollet,babble_15.wav,hånlig_reversed.wav,bange_reversed.wav,,,,,0,85,85,85,,,m,0.3273431999987224,Hit,0.8251929762152569,2011,001,2025-11-20_15-05-10,
present,0.7,grusom_compressed.wav,grusom,babble_86.wav,rædsel_reversed.wav,fiasko_reversed.wav,,,,,0,86,86,86,,,m,0.24006179999923916,Hit,1.0580400730168544,2011,001,2025-11-20_15-05-10,
absent,0.3,SILENCE,NA,babble_59.wav,skammel_reversed.wav,blomstre_reversed.wav,,,,,0,87,87,87,,,z,1.4031355000006442,Correct Rejection,1.3025004110421647,2011,001,2025-11-20_15-05-10,
absent,0.6,SILENCE,NA,babble_21.wav,jubel_reversed.wav,succes_reversed.wav,,,,,0,88,88,88,,,m,0.3422289999980421,False Alarm,1.3594128049922438,2011,001,2025-11-20_15-05-10,
present,0.5,glæde_compressed.wav,glæde,babble_6.wav,ensom_reversed.wav,taxa_reversed.wav,,,,,0,89,89,89,,,m,0.22524380000322708,Hit,1.1163388347834655,2011,001,2025-11-20_15-05-10,
present,0.2,gade_compressed.wav,gade,babble_24.wav,engel_reversed.wav,fiasko_reversed.wav,,,,,0,90,90,90,,,m,1.17275559999689,Hit,1.4028951935429652,2011,001,2025-11-20_15-05-10,
absent,0.5,SILENCE,NA,babble_40.wav,viden_reversed.wav,tilfreds_reversed.wav,,,,,0,91,91,91,,,z,1.1398989000008442,Correct Rejection,0.8524745088943538,2011,001,2025-11-20_15-05-10,
present,0.6,feber_compressed.wav,feber,babble_33.wav,lyse_reversed.wav,forfald_reversed.wav,,,,,0,92,92,92,,,z,1.4606968000007328,Miss,1.0824789538318784,2011,001,2025-11-20_15-05-10,
present,0.3,enhed_compressed.wav,enhed,babble_48.wav,utro_reversed.wav,ankel_reversed.wav,,,,,0,93,93,93,,,m,0.38340489999973215,Hit,1.2862453634022635,2011,001,2025-11-20_15-05-10,
absent,0.6,SILENCE,NA,babble_11.wav,marked_reversed.wav,modgang_reversed.wav,,,,,0,94,94,94,,,z,1.0449292000012065,Correct Rejection,0.9602623975881364,2011,001,2025-11-20_15-05-10,
absent,0.3,SILENCE,NA,babble_4.wav,syndig_reversed.wav,sandhed_reversed.wav,,,,,0,95,95,95,,,z,1.4775644999972428,Correct Rejection,0.7945609948010915,2011,001,2025-11-20_15-05-10,
present,0.5,kedel_compressed.wav,kedel,babble_18.wav,tortur_reversed.wav,poesi_reversed.wav,,,,,0,96,96,96,,,m,0.3299348000000464,Hit,0.9150465494352555,2011,001,2025-11-20_15-05-10,
absent,0.3,SILENCE,NA,babble_71.wav,sandhed_reversed.wav,forpint_reversed.wav,,,,,0,97,97,97,,,z,0.5190867000019352,Correct Rejection,1.4175904247623454,2011,001,2025-11-20_15-05-10,
absent,0.7,SILENCE,NA,babble_84.wav,skuffe_reversed.wav,bifald_reversed.wav,,,,,0,98,98,98,,,z,0.3535833999994793,Correct Rejection,1.097434077136706,2011,001,2025-11-20_15-05-10,
present,0.1,pude_compressed.wav,pude,babble_22.wav,jubel_reversed.wav,oprørt_reversed.wav,,,,,0,99,99,99,,,m,0.31270949999816366,Hit,1.4874368472257484,2011,001,2025-11-20_15-05-10,
absent,0.5,SILENCE,NA,babble_95.wav,museum_reversed.wav,kugle_reversed.wav,,,,,0,100,100,100,,,z,0.8926774999999907,Correct Rejection,1.000851148637456,2011,001,2025-11-20_15-05-10,
absent,0.5,SILENCE,NA,babble_82.wav,affald_reversed.wav,ensom_reversed.wav,,,,,0,101,101,101,,,z,1.005985800002236,Correct Rejection,0.5565905642032075,2011,001,2025-11-20_15-05-10,
absent,0.6,SILENCE,NA,babble_77.wav,feber_reversed.wav,baby_reversed.wav,,,,,0,102,102,102,,,z,1.121774600000208,Correct Rejection,0.5607351025568824,2011,001,2025-11-20_15-05-10,
absent,0.5,SILENCE,NA,babble_72.wav,hånlig_reversed.wav,jubel_reversed.wav,,,,,0,103,103,103,,,z,1.3252915999983088,Correct Rejection,1.189433042555824,2011,001,2025-11-20_15-05-10,
present,0.3,forkert_compressed.wav,forkert,babble_14.wav,trussel_reversed.wav,magisk_reversed.wav,,,,,0,104,104,104,,,m,0.3740495000020019,Hit,0.9062861303149587,2011,001,2025-11-20_15-05-10,
absent,0.5,SILENCE,NA,babble_99.wav,offer_reversed.wav,respekt_reversed.wav,,,,,0,105,105,105,,,z,1.2969396000007691,Correct Rejection,0.7413959389163604,2011,001,2025-11-20_15-05-10,
absent,0.2,SILENCE,NA,babble_42.wav,kage_reversed.wav,metal_reversed.wav,,,,,0,106,106,106,,,z,1.5297667000013462,Correct Rejection,1.2070993674155477,2011,001,2025-11-20_15-05-10,
present,0.1,kvæles_compressed.wav,kvæles,babble_86.wav,gave_reversed.wav,ensom_reversed.wav,,,,,0,107,107,107,,,m,2.310621100001299,Hit,1.0839801859208709,2011,001,2025-11-20_15-05-10,
absent,0.5,SILENCE,NA,babble_26.wav,sygdom_reversed.wav,vandal_reversed.wav,,,,,0,108,108,108,,,z,0.8027373000004445,Correct Rejection,1.2169038475340557,2011,001,2025-11-20_15-05-10,
present,0.7,skyldig_compressed.wav,skyldig,babble_30.wav,sikker_reversed.wav,fængsel_reversed.wav,,,,,0,109,109,109,,,m,0.26999330000035116,Hit,1.3375555119550375,2011,001,2025-11-20_15-05-10,
absent,0.5,SILENCE,NA,babble_24.wav,ankel_reversed.wav,stjerne_reversed.wav,,,,,0,110,110,110,,,z,1.3639059999986785,Correct Rejection,0.8867917214669166,2011,001,2025-11-20_15-05-10,
present,0.3,heldig_compressed.wav,heldig,babble_89.wav,bifald_reversed.wav,rotte_reversed.wav,,,,,0,111,111,111,,,m,0.3076431999979832,Hit,0.9228976835998676,2011,001,2025-11-20_15-05-10,
present,0.3,cirkel_compressed.wav,cirkel,babble_82.wav,statue_reversed.wav,succes_reversed.wav,,,,,0,112,112,112,,,z,1.4286658999990323,Miss,0.709149308504392,2011,001,2025-11-20_15-05-10,
absent,0.7,SILENCE,NA,babble_11.wav,nedbrud_reversed.wav,dæmpet_reversed.wav,,,,,0,113,113,113,,,z,1.4740831999988586,Correct Rejection,1.2710197983340459,2011,001,2025-11-20_15-05-10,
absent,0.6,SILENCE,NA,babble_48.wav,jubel_reversed.wav,blomstre_reversed.wav,,,,,0,114,114,114,,,z,1.700433999998495,Correct Rejection,0.5199071536327857,2011,001,2025-11-20_15-05-10,
absent,0.7,SILENCE,NA,babble_77.wav,cirkel_reversed.wav,nøgle_reversed.wav,,,,,0,115,115,115,,,z,0.9415974999974424,Correct Rejection,1.2911177406317307,2011,001,2025-11-20_15-05-10,
absent,0.3,SILENCE,NA,babble_16.wav,ensom_reversed.wav,frihed_reversed.wav,,,,,0,116,116,116,,,z,1.197573999997985,Correct Rejection,1.4583747848151964,2011,001,2025-11-20_15-05-10,
present,0.1,diamant_compressed.wav,diamant,babble_79.wav,fjendtlig_reversed.wav,frygtsom_reversed.wav,,,,,0,117,117,117,,,m,0.41860319999977946,Hit,0.9675530288544131,2011,001,2025-11-20_15-05-10,
present,0.2,forår_compressed.wav,forår,babble_43.wav,nedbrud_reversed.wav,salat_reversed.wav,,,,,0,118,118,118,,,m,0.36437690000093426,Hit,1.0526057942783305,2011,001,2025-11-20_15-05-10,
present,0.3,hjerte_compressed.wav,hjerte,babble_3.wav,banner_reversed.wav,ferie_reversed.wav,,,,,0,119,119,119,,,m,0.35899369999970077,Hit,0.6809916655292393,2011,001,2025-11-20_15-05-10,
present,0.5,sejre_compressed.wav,sejre,babble_13.wav,varme_reversed.wav,rabies_reversed.wav,,,,,0,120,120,120,,,m,0.39027550000173505,Hit,1.183258566256836,2011,001,2025-11-20_15-05-10,
absent,0.1,SILENCE,NA,babble_69.wav,skade_reversed.wav,slave_reversed.wav,,,,,0,121,121,121,,,z,1.2386770000011893,Correct Rejection,1.2824499435461114,2011,001,2025-11-20_15-05-10,
absent,0.3,SILENCE,NA,babble_49.wav,skønhed_reversed.wav,humor_reversed.wav,,,,,0,122,122,122,,,z,1.3790554000006523,Correct Rejection,0.8674271608393831,2011,001,2025-11-20_15-05-10,
present,0.5,metal_compressed.wav,metal,babble_35.wav,konkurs_reversed.wav,tilfreds_reversed.wav,,,,,0,123,123,123,,,m,0.37067970000134665,Hit,1.4006973305804582,2011,001,2025-11-20_15-05-10,
absent,0.2,SILENCE,NA,babble_43.wav,kiste_reversed.wav,ketchup_reversed.wav,,,,,0,124,124,124,,,z,0.9123413999986951,Correct Rejection,0.6471732931031252,2011,001,2025-11-20_15-05-10,
present,0.3,stjerne_compressed.wav,stjerne,babble_50.wav,plakat_reversed.wav,rædsel_reversed.wav,,,,,0,125,125,125,,,m,0.24583830000119633,Hit,0.7726352001593803,2011,001,2025-11-20_15-05-10,
absent,0.2,SILENCE,NA,babble_99.wav,kujon_reversed.wav,poesi_reversed.wav,,,,,0,126,126,126,,,z,1.402881800000614,Correct Rejection,1.4287533528764826,2011,001,2025-11-20_15-05-10,
present,0.6,natur_compressed.wav,natur,babble_62.wav,drukne_reversed.wav,tortur_reversed.wav,,,,,0,127,127,127,,,m,0.3371446000019205,Hit,0.8441353321741345,2011,001,2025-11-20_15-05-10,
present,0.5,dæmon_compressed.wav,dæmon,babble_11.wav,frygtsom_reversed.wav,taxa_reversed.wav,,,,,0,128,128,128,,,z,1.1447124000005715,Miss,1.4658157060937906,2011,001,2025-11-20_15-05-10,
present,0.2,boble_compressed.wav,boble,babble_27.wav,tortur_reversed.wav,engel_reversed.wav,,,,,0,129,129,129,,,m,0.3236243999999715,Hit,0.5543955057103203,2011,001,2025-11-20_15-05-10,
present,0.4,utro_compressed.wav,utro,babble_94.wav,ketchup_reversed.wav,maling_reversed.wav,,,,,0,130,130,130,,,m,0.3563527000005706,Hit,0.5619288284771347,2011,001,2025-11-20_15-05-10,
absent,0.6,SILENCE,NA,babble_96.wav,sexet_reversed.wav,sollys_reversed.wav,,,,,0,131,131,131,,,m,1.1706812000011269,False Alarm,1.082525874015702,2011,001,2025-11-20_15-05-10,
absent,0.2,SILENCE,NA,babble_8.wav,selvmord_reversed.wav,mave_reversed.wav,,,,,0,132,132,132,,,z,0.9231704999983776,Correct Rejection,0.631174931711087,2011,001,2025-11-20_15-05-10,
present,0.2,genstand_compressed.wav,genstand,babble_14.wav,marked_reversed.wav,trofæ_reversed.wav,,,,,0,133,133,133,,,m,0.3641639000015857,Hit,0.9214216940182623,2011,001,2025-11-20_15-05-10,
present,0.4,udskud_compressed.wav,udskud,babble_60.wav,bifald_reversed.wav,utro_reversed.wav,,,,,0,134,134,134,,,m,0.468244899999263,Hit,1.1946634317105083,2011,001,2025-11-20_15-05-10,
present,0.5,skønhed_compressed.wav,skønhed,babble_58.wav,djævel_reversed.wav,bygning_reversed.wav,,,,,0,135,135,135,,,m,0.49310909999985597,Hit,0.6431319996483851,2011,001,2025-11-20_15-05-10,
present,0.2,bange_compressed.wav,bange,babble_29.wav,oprørt_reversed.wav,rigdom_reversed.wav,,,,,0,136,136,136,,,z,0.8475607000000309,Miss,0.8478841381473969,2011,001,2025-11-20_15-05-10,
present,0.6,pjece_compressed.wav,pjece,babble_49.wav,genert_reversed.wav,violin_reversed.wav,,,,,0,137,137,137,,,m,0.7944213999981002,Hit,0.8940614459997132,2011,001,2025-11-20_15-05-10,
absent,0.2,SILENCE,NA,babble_25.wav,spænding_reversed.wav,dollar_reversed.wav,,,,,0,138,138,138,,,z,0.7064754000020912,Correct Rejection,0.9407638945616661,2011,001,2025-11-20_15-05-10,
absent,0.4,SILENCE,NA,babble_55.wav,tilfreds_reversed.wav,slave_reversed.wav,,,,,0,139,139,139,,,z,1.1807988000000478,Correct Rejection,0.8602543985840803,2011,001,2025-11-20_15-05-10,
present,0.5,sikker_compressed.wav,sikker,babble_93.wav,kugle_reversed.wav,talent_reversed.wav,,,,,0,140,140,140,,,z,1.0539879999996629,Miss,0.7386619274601928,2011,001,2025-11-20_15-05-10,
present,0.4,ugle_compressed.wav,ugle,babble_65.wav,kage_reversed.wav,tilfreds_reversed.wav,,,,,0,141,141,141,,,z,0.6917600000015227,Miss,1.169456098854465,2011,001,2025-11-20_15-05-10,
present,0.2,sollys_compressed.wav,sollys,babble_80.wav,konge_reversed.wav,smerte_reversed.wav,,,,,0,142,142,142,,,m,1.326099100002466,Hit,1.2996582420956195,2011,001,2025-11-20_15-05-10,
absent,0.3,SILENCE,NA,babble_56.wav,opstemt_reversed.wav,traume_reversed.wav,,,,,0,143,143,143,,,z,0.9355364000002737,Correct Rejection,0.775834303611285,2011,001,2025-11-20_15-05-10,
absent,0.7,SILENCE,NA,babble_29.wav,oprør_reversed.wav,hånlig_reversed.wav,,,,,0,144,144,144,,,z,1.240108500001952,Correct Rejection,0.809988636673282,2011,001,2025-11-20_15-05-10,
absent,0.5,SILENCE,NA,babble_33.wav,ørken_reversed.wav,frihed_reversed.wav,,,,,0,145,145,145,,,z,1.0291797000027145,Correct Rejection,1.216032238996207,2011,001,2025-11-20_15-05-10,
absent,0.4,SILENCE,NA,babble_59.wav,skyldig_reversed.wav,modgang_reversed.wav,,,,,0,146,146,146,,,z,1.1867818999999145,Correct Rejection,0.6175734313204306,2011,001,2025-11-20_15-05-10,
absent,0.2,SILENCE,NA,babble_38.wav,fiasko_reversed.wav,lækker_reversed.wav,,,,,0,147,147,147,,,z,0.9466854000020248,Correct Rejection,0.7969410322939926,2011,001,2025-11-20_15-05-10,
present,0.3,bryllup_compressed.wav,bryllup,babble_5.wav,pude_reversed.wav,statue_reversed.wav,,,,,0,148,148,148,,,z,0.6510745999985375,Miss,0.7839301408891558,2011,001,2025-11-20_15-05-10,
present,0.7,varme_compressed.wav,varme,babble_33.wav,selvmord_reversed.wav,sæde_reversed.wav,,,,,0,149,149,149,,,m,0.3465938000008464,Hit,1.3084599541995336,2011,001,2025-11-20_15-05-10,
present,0.7,grimme_compressed.wav,grimme,babble_56.wav,forfald_reversed.wav,nonsens_reversed.wav,,,,,0,150,150,150,,,m,0.9814688000005845,Hit,0.8061911645375275,2011,001,2025-11-20_15-05-10,
absent,0.4,SILENCE,NA,babble_48.wav,søsyg_reversed.wav,venlig_reversed.wav,,,,,0,151,151,151,,,z,3.320015900000726,Correct Rejection,0.7556875537904659,2011,001,2025-11-20_15-05-10,
present,0.1,kæle_compressed.wav,kæle,babble_19.wav,diamant_reversed.wav,syndig_reversed.wav,,,,,0,152,152,152,,,z,0.610290000000532,Miss,0.9990735581475435,2011,001,2025-11-20_15-05-10,
absent,0.5,SILENCE,NA,babble_7.wav,natur_reversed.wav,festlig_reversed.wav,,,,,0,153,153,153,,,z,0.5920336999988649,Correct Rejection,1.3295245887268408,2011,001,2025-11-20_15-05-10,
present,0.6,fremskridt_compressed.wav,fremskridt,babble_37.wav,forpint_reversed.wav,kiste_reversed.wav,,,,,0,154,154,154,,,m,0.2587796999978309,Hit,1.445659790727721,2011,001,2025-11-20_15-05-10,
present,0.2,slagtning_compressed.wav,slagtning,babble_81.wav,redning_reversed.wav,sæde_reversed.wav,,,,,0,155,155,155,,,m,1.058353200001875,Hit,1.2946921739766541,2011,001,2025-11-20_15-05-10,
present,0.4,passion_compressed.wav,passion,babble_43.wav,blodig_reversed.wav,sæde_reversed.wav,,,,,0,156,156,156,,,m,1.4811322999994445,Hit,0.5274567103709726,2011,001,2025-11-20_15-05-10,
present,0.1,patent_compressed.wav,patent,babble_50.wav,fiasko_reversed.wav,fiasko_reversed.wav,,,,,0,157,157,157,,,m,0.6338701000022411,Hit,0.8804307823163351,2011,001,2025-11-20_15-05-10,
absent,0.7,SILENCE,NA,babble_86.wav,vandal_reversed.wav,skade_reversed.wav,,,,,0,158,158,158,,,z,1.2195479000001797,Correct Rejection,1.3137644788079115,2011,001,2025-11-20_15-05-10,
present,0.4,hånlig_compressed.wav,hånlig,babble_63.wav,enhed_reversed.wav,flirte_reversed.wav,,,,,0,159,159,159,,,z,0.7779482000005373,Miss,1.0745064012618037,2011,001,2025-11-20_15-05-10,
absent,0.3,SILENCE,NA,babble_45.wav,himmel_reversed.wav,kande_reversed.wav,,,,,0,160,160,160,,,z,0.9537205000015092,Correct Rejection,1.4140793664405602,2011,001,2025-11-20_15-05-10,
present,0.5,konge_compressed.wav,konge,babble_47.wav,krise_reversed.wav,grusom_reversed.wav,,,,,0,161,161,161,,,m,0.7885415999990073,Hit,0.7008613141852027,2011,001,2025-11-20_15-05-10,
present,0.3,forpint_compressed.wav,forpint,babble_92.wav,finger_reversed.wav,måned_reversed.wav,,,,,0,162,162,162,,,z,0.628116100000625,Miss,1.1043488408056907,2011,001,2025-11-20_15-05-10,
present,0.2,taxa_compressed.wav,taxa,babble_53.wav,grusom_reversed.wav,pjece_reversed.wav,,,,,0,163,163,163,,,m,0.32803489999787416,Hit,0.6417900058153513,2011,001,2025-11-20_15-05-10,
absent,0.7,SILENCE,NA,babble_1.wav,hage_reversed.wav,sexet_reversed.wav,,,,,0,164,164,164,,,z,1.3229867999980343,Correct Rejection,0.8109029761603057,2011,001,2025-11-20_15-05-10,
absent,0.2,SILENCE,NA,babble_97.wav,affald_reversed.wav,dæmpet_reversed.wav,,,,,0,165,165,165,,,z,0.8693287999994936,Correct Rejection,0.8624071572627753,2011,001,2025-11-20_15-05-10,
absent,0.2,SILENCE,NA,babble_4.wav,venlig_reversed.wav,ugle_reversed.wav,,,,,0,166,166,166,,,z,0.9903728999997838,Correct Rejection,1.2796159680889498,2011,001,2025-11-20_15-05-10,
absent,0.1,SILENCE,NA,babble_43.wav,ferie_reversed.wav,giftig_reversed.wav,,,,,0,167,167,167,,,z,0.8917302000008931,Correct Rejection,0.5638854119591827,2011,001,2025-11-20_15-05-10,
absent,0.3,SILENCE,NA,babble_58.wav,smerte_reversed.wav,væmmes_reversed.wav,,,,,0,168,168,168,,,z,1.7246415999979945,Correct Rejection,1.2311485547269143,2011,001,2025-11-20_15-05-10,
present,0.7,smerte_compressed.wav,smerte,babble_87.wav,natur_reversed.wav,maling_reversed.wav,,,,,0,169,169,169,,,z,1.6292200999996567,Miss,1.4171264011724864,2011,001,2025-11-20_15-05-10,
absent,0.4,SILENCE,NA,babble_80.wav,heldig_reversed.wav,traume_reversed.wav,,,,,0,170,170,170,,,z,1.040362499999901,Correct Rejection,1.3781089204587773,2011,001,2025-11-20_15-05-10,
present,0.1,kage_compressed.wav,kage,babble_9.wav,tumor_reversed.wav,fase_reversed.wav,,,,,0,171,171,171,,,m,0.5482830999972066,Hit,1.0955238412987978,2011,001,2025-11-20_15-05-10,
absent,0.1,SILENCE,NA,babble_38.wav,sollys_reversed.wav,marked_reversed.wav,,,,,0,172,172,172,,,z,1.7042566000018269,Correct Rejection,1.0175729604911288,2011,001,2025-11-20_15-05-10,
absent,0.1,SILENCE,NA,babble_84.wav,stjerne_reversed.wav,glæde_reversed.wav,,,,,0,173,173,173,,,z,1.1064541000014287,Correct Rejection,1.147009164837484,2011,001,2025-11-20_15-05-10,
present,0.6,grimme_compressed.wav,grimme,babble_75.wav,mester_reversed.wav,søsyg_reversed.wav,,,,,0,174,174,174,,,m,1.8766854999994393,Hit,1.3207473215746983,2011,001,2025-11-20_15-05-10,
present,0.7,sygdom_compressed.wav,sygdom,babble_18.wav,vindue_reversed.wav,festlig_reversed.wav,,,,,0,175,175,175,,,m,1.0254401999991387,Hit,1.229590684658761,2011,001,2025-11-20_15-05-10,
present,0.7,voldsom_compressed.wav,voldsom,babble_72.wav,oprørt_reversed.wav,pude_reversed.wav,,,,,0,176,176,176,,,m,0.3049300000020594,Hit,0.5863472117487945,2011,001,2025-11-20_15-05-10,
absent,0.1,SILENCE,NA,babble_30.wav,lampe_reversed.wav,magisk_reversed.wav,,,,,0,177,177,177,,,m,0.7490952999978617,False Alarm,0.8713097215564081,2011,001,2025-11-20_15-05-10,
absent,0.1,SILENCE,NA,babble_26.wav,cirkel_reversed.wav,sikker_reversed.wav,,,,,0,178,178,178,,,z,0.9094140999986848,Correct Rejection,1.2330789060866172,2011,001,2025-11-20_15-05-10,
absent,0.7,SILENCE,NA,babble_28.wav,skuffe_reversed.wav,fjendtlig_reversed.wav,,,,,0,179,179,179,,,z,1.014527100000123,Correct Rejection,1.0077947513855423,2011,001,2025-11-20_15-05-10,
absent,0.3,SILENCE,NA,babble_87.wav,albue_reversed.wav,genert_reversed.wav,,,,,0,180,180,180,,,z,1.0584971999996924,Correct Rejection,0.8365923805563749,2011,001,2025-11-20_15-05-10,
present,0.1,statue_compressed.wav,statue,babble_1.wav,gratis_reversed.wav,glæde_reversed.wav,,,,,0,181,181,181,,,m,0.978943000001891,Hit,0.677442409388539,2011,001,2025-11-20_15-05-10,
present,0.1,ugle_compressed.wav,ugle,babble_68.wav,syndig_reversed.wav,nonsens_reversed.wav,,,,,0,182,182,182,,,z,1.6907548000017414,Miss,0.7829469487979369,2011,001,2025-11-20_15-05-10,
absent,0.6,SILENCE,NA,babble_36.wav,ugle_reversed.wav,bygning_reversed.wav,,,,,0,183,183,183,,,z,1.8869942999990599,Correct Rejection,0.6219342804633035,2011,001,2025-11-20_15-05-10,
present,0.4,brutal_compressed.wav,brutal,babble_84.wav,krise_reversed.wav,røver_reversed.wav,,,,,0,184,184,184,,,m,1.18675710000025,Hit,1.2998901708474957,2011,001,2025-11-20_15-05-10,
absent,0.3,SILENCE,NA,babble_82.wav,talent_reversed.wav,kage_reversed.wav,,,,,0,185,185,185,,,z,0.7938795999980357,Correct Rejection,1.3376338830288144,2011,001,2025-11-20_15-05-10,
absent,0.6,SILENCE,NA,babble_99.wav,gratis_reversed.wav,hader_reversed.wav,,,,,0,186,186,186,,,z,0.7657842000007804,Correct Rejection,1.166724898227302,2011,001,2025-11-20_15-05-10,
absent,0.2,SILENCE,NA,babble_19.wav,frihed_reversed.wav,kedel_reversed.wav,,,,,0,187,187,187,,,z,0.6703844000003301,Correct Rejection,1.0256819758116014,2011,001,2025-11-20_15-05-10,
absent,0.1,SILENCE,NA,babble_80.wav,kærtegn_reversed.wav,frygtsom_reversed.wav,,,,,0,188,188,188,,,z,0.5184254999985569,Correct Rejection,0.9494948594398881,2011,001,2025-11-20_15-05-10,
present,0.6,respekt_compressed.wav,respekt,babble_26.wav,motor_reversed.wav,koldbrand_reversed.wav,,,,,0,189,189,189,,,m,0.3287611999985529,Hit,0.709130319149246,2011,001,2025-11-20_15-05-10,
present,0.2,modgang_compressed.wav,modgang,babble_57.wav,giftig_reversed.wav,forkert_reversed.wav,,,,,0,190,190,190,,,m,0.6449977000011131,Hit,1.4425825552660183,2011,001,2025-11-20_15-05-10,
absent,0.6,SILENCE,NA,babble_90.wav,krise_reversed.wav,ønske_reversed.wav,,,,,0,191,191,191,,,z,0.7802177999983542,Correct Rejection,1.120648907135533,2011,001,2025-11-20_15-05-10,
absent,0.4,SILENCE,NA,babble_33.wav,redning_reversed.wav,rådden_reversed.wav,,,,,0,192,192,192,,,z,0.279966099999001,Correct Rejection,1.1848895047137784,2011,001,2025-11-20_15-05-10,
present,0.3,fængsel_compressed.wav,fængsel,babble_22.wav,giftig_reversed.wav,hader_reversed.wav,,,,,0,193,193,193,,,z,0.4836758000019472,Miss,0.8337566261078139,2011,001,2025-11-20_15-05-10,
present,0.6,kysse_compressed.wav,kysse,babble_57.wav,måned_reversed.wav,regnbue_reversed.wav,,,,,0,194,194,194,,,m,0.541832400002022,Hit,1.1173827629048332,2011,001,2025-11-20_15-05-10,
present,0.6,gade_compressed.wav,gade,babble_7.wav,bombe_reversed.wav,voldtægt_reversed.wav,,,,,0,195,195,195,,,m,0.6050313000014285,Hit,1.3113942299598809,2011,001,2025-11-20_15-05-10,
present,0.4,kande_compressed.wav,kande,babble_42.wav,grusom_reversed.wav,vandal_reversed.wav,,,,,0,196,196,196,,,m,0.2695282999993651,Hit,0.7849757411464919,2011,001,2025-11-20_15-05-10,
present,0.2,skammel_compressed.wav,skammel,babble_63.wav,brænde_reversed.wav,konkurs_reversed.wav,,,,,0,197,197,197,,,m,0.32998910000242176,Hit,0.5448873477962523,2011,001,2025-11-20_15-05-10,
present,0.6,gidsel_compressed.wav,gidsel,babble_50.wav,redning_reversed.wav,nonne_reversed.wav,,,,,0,198,198,198,,,m,0.6451803999989352,Hit,0.965118706761271,2011,001,2025-11-20_15-05-10,
absent,0.1,SILENCE,NA,babble_38.wav,hjerte_reversed.wav,himlen_reversed.wav,,,,,0,199,199,199,,,z,1.8700329000021156,Correct Rejection,0.8504139568888479,2011,001,2025-11-20_15-05-10,
present,0.7,ketchup_compressed.wav,ketchup,babble_32.wav,glæde_reversed.wav,voldtægt_reversed.wav,,,,,0,200,200,200,,,m,0.6123272000004363,Hit,1.1249757025227072,2011,001,2025-11-20_15-05-10,
present,0.1,opstemt_compressed.wav,opstemt,babble_2.wav,fjollet_reversed.wav,succes_reversed.wav,,,,,0,201,201,201,,,z,1.8931530000008934,Miss,1.4392475251706127,2011,001,2025-11-20_15-05-10,
present,0.5,luksus_compressed.wav,luksus,babble_27.wav,spise_reversed.wav,ensom_reversed.wav,,,,,0,202,202,202,,,m,1.3172345999992103,Hit,0.5025278210970425,2011,001,2025-11-20_15-05-10,
absent,0.5,SILENCE,NA,babble_98.wav,redskab_reversed.wav,blomstre_reversed.wav,,,,,0,203,203,203,,,z,1.6724031999983708,Correct Rejection,1.1363979796474957,2011,001,2025-11-20_15-05-10,
present,0.6,udskud_compressed.wav,udskud,babble_54.wav,konkurs_reversed.wav,lampe_reversed.wav,,,,,0,204,204,204,,,m,1.3755420000015874,Hit,1.3035844186849368,2011,001,2025-11-20_15-05-10,
present,0.5,salat_compressed.wav,salat,babble_67.wav,modgang_reversed.wav,beskidt_reversed.wav,,,,,0,205,205,205,,,m,0.2773124999985157,Hit,1.0980861200980758,2011,001,2025-11-20_15-05-10,
present,0.2,vinde_compressed.wav,vinde,babble_45.wav,utro_reversed.wav,ensom_reversed.wav,,,,,0,206,206,206,,,m,0.2710642000020016,Hit,1.308541605958737,2011,001,2025-11-20_15-05-10,
present,0.5,ønske_compressed.wav,ønske,babble_6.wav,brænde_reversed.wav,ensom_reversed.wav,,,,,0,207,207,207,,,m,0.2775309999997262,Hit,1.2627006815870168,2011,001,2025-11-20_15-05-10,
absent,0.6,SILENCE,NA,babble_32.wav,vandal_reversed.wav,hage_reversed.wav,,,,,0,208,208,208,,,z,0.7384824000000663,Correct Rejection,0.8857695700528279,2011,001,2025-11-20_15-05-10,
present,0.4,fjollet_compressed.wav,fjollet,babble_50.wav,talent_reversed.wav,vandal_reversed.wav,,,,,0,209,209,209,,,m,0.8970738000025449,Hit,1.3348652152882825,2011,001,2025-11-20_15-05-10,
