trial_i,prime_file,prime_valence,correct_word,distractor_word,babbling_file,mask1_file,mask2_file,practice.thisRepN,practice.thisTrialN,practice.thisN,practice.thisIndex,main.thisRepN,main.thisTrialN,main.thisN,main.thisIndex,response_key,rt,correct_key,accuracy,left_word,right_word,Participant ID,Session,date,
65,engel_compressed.wav,positive,engel,spænding,babble_93.wav,cirkel_reversed.wav,genstand_reversed.wav,0,0,0,0,0,-1,-1,0,left,1.949666976928711,right,0,spænding,engel,5567,001,2025-11-28_14-28-04,
7,putte_compressed.wav,positive,putte,marked,babble_89.wav,sejre_reversed.wav,ledning_reversed.wav,0,1,1,1,0,-1,-1,0,left,4.287108898162842,right,0,marked,putte,5567,001,2025-11-28_14-28-04,
81,taber_compressed.wav,negative,taber,væmmes,babble_28.wav,cirkel_reversed.wav,passion_reversed.wav,0,2,2,2,0,-1,-1,0,left,1.5543899536132812,left,1,taber,væmmes,5567,001,2025-11-28_14-28-04,
19,poesi_compressed.wav,neutral,poesi,motor,babble_3.wav,mester_reversed.wav,pude_reversed.wav,0,3,3,3,0,-1,-1,0,left,3.317033052444458,left,1,poesi,motor,5567,001,2025-11-28_14-28-04,
69,måned_compressed.wav,neutral,måned,metal,babble_12.wav,tilfreds_reversed.wav,heldig_reversed.wav,0,4,4,4,0,-1,-1,0,left,1.345216989517212,left,1,måned,metal,5567,001,2025-11-28_14-28-04,
17,salat_compressed.wav,neutral,salat,vinde,babble_34.wav,magisk_reversed.wav,avis_reversed.wav,,,,,0,0,0,0,right,0.6279850006103516,right,1,vinde,salat,5567,001,2025-11-28_14-28-04,
85,museum_compressed.wav,neutral,museum,tortur,babble_30.wav,kedel_reversed.wav,banner_reversed.wav,,,,,0,1,1,1,left,0.5564799308776855,left,1,museum,tortur,5567,001,2025-11-28_14-28-04,
48,kæle_compressed.wav,positive,kæle,diamant,babble_47.wav,djævel_reversed.wav,boble_reversed.wav,,,,,0,2,2,2,left,1.1410789489746094,left,1,kæle,diamant,5567,001,2025-11-28_14-28-04,
41,knude_compressed.wav,neutral,knude,bygning,babble_49.wav,kedel_reversed.wav,utro_reversed.wav,,,,,0,3,3,3,left,1.273705005645752,left,1,knude,bygning,5567,001,2025-11-28_14-28-04,
56,fængsel_compressed.wav,negative,fængsel,penge,babble_65.wav,brutal_reversed.wav,opstemt_reversed.wav,,,,,0,4,4,4,right,1.5684750080108643,right,1,penge,fængsel,5567,001,2025-11-28_14-28-04,
15,konkurs_compressed.wav,negative,konkurs,enhed,babble_40.wav,genstand_reversed.wav,bygning_reversed.wav,,,,,0,5,5,5,left,2.788300037384033,left,1,konkurs,enhed,5567,001,2025-11-28_14-28-04,
10,mave_compressed.wav,neutral,mave,kande,babble_33.wav,modgang_reversed.wav,grimme_reversed.wav,,,,,0,6,6,6,left,1.797044038772583,right,0,kande,mave,5567,001,2025-11-28_14-28-04,
11,flirte_compressed.wav,positive,flirte,ønske,babble_3.wav,pervers_reversed.wav,leder_reversed.wav,,,,,0,7,7,7,left,1.186884880065918,left,1,flirte,ønske,5567,001,2025-11-28_14-28-04,
29,natur_compressed.wav,positive,natur,sikker,babble_89.wav,varme_reversed.wav,nøgle_reversed.wav,,,,,0,8,8,8,right,0.5114660263061523,right,1,sikker,natur,5567,001,2025-11-28_14-28-04,
80,kande_compressed.wav,neutral,kande,dollar,babble_46.wav,voldtægt_reversed.wav,kage_reversed.wav,,,,,0,9,9,9,left,0.9272329807281494,left,1,kande,dollar,5567,001,2025-11-28_14-28-04,
31,blodig_compressed.wav,negative,blodig,putte,babble_61.wav,marked_reversed.wav,hånlig_reversed.wav,,,,,0,10,10,10,right,1.3949799537658691,right,1,putte,blodig,5567,001,2025-11-28_14-28-04,
18,misbrug_compressed.wav,negative,misbrug,illoyal,babble_87.wav,fremskridt_reversed.wav,engel_reversed.wav,,,,,0,11,11,11,right,0.5238900184631348,right,1,illoyal,misbrug,5567,001,2025-11-28_14-28-04,
37,voldtægt_compressed.wav,negative,voldtægt,fjollet,babble_52.wav,avis_reversed.wav,viden_reversed.wav,,,,,0,12,12,12,right,0.5634720325469971,right,1,fjollet,voldtægt,5567,001,2025-11-28_14-28-04,
32,lyse_compressed.wav,positive,lyse,forår,babble_89.wav,fase_reversed.wav,grusom_reversed.wav,,,,,0,13,13,13,right,1.5994138717651367,right,1,forår,lyse,5567,001,2025-11-28_14-28-04,
3,festlig_compressed.wav,positive,festlig,spise,babble_70.wav,illoyal_reversed.wav,giftig_reversed.wav,,,,,0,14,14,14,left,1.67979097366333,right,0,spise,festlig,5567,001,2025-11-28_14-28-04,
12,bombe_compressed.wav,negative,bombe,hårnål,babble_76.wav,vandal_reversed.wav,modgang_reversed.wav,,,,,0,15,15,15,right,0.44986605644226074,right,1,hårnål,bombe,5567,001,2025-11-28_14-28-04,
47,smerte_compressed.wav,negative,smerte,oprørt,babble_86.wav,kæle_reversed.wav,ferie_reversed.wav,,,,,0,16,16,16,right,0.46947407722473145,right,1,oprørt,smerte,5567,001,2025-11-28_14-28-04,
90,vindue_compressed.wav,neutral,vindue,pude,babble_23.wav,konge_reversed.wav,talent_reversed.wav,,,,,0,17,17,17,left,0.9943540096282959,left,1,vindue,pude,5567,001,2025-11-28_14-28-04,
35,voldsom_compressed.wav,negative,voldsom,ydmyg,babble_69.wav,plakat_reversed.wav,respekt_reversed.wav,,,,,0,18,18,18,left,0.6385948657989502,left,1,voldsom,ydmyg,5567,001,2025-11-28_14-28-04,
6,lækker_compressed.wav,positive,lækker,nonne,babble_25.wav,latter_reversed.wav,ankel_reversed.wav,,,,,0,19,19,19,left,2.376016139984131,left,1,lækker,nonne,5567,001,2025-11-28_14-28-04,
88,ønske_compressed.wav,positive,ønske,dæmpet,babble_11.wav,modgang_reversed.wav,violin_reversed.wav,,,,,0,20,20,20,left,0.6698691844940186,left,1,ønske,dæmpet,5567,001,2025-11-28_14-28-04,
45,forår_compressed.wav,positive,forår,gidsel,babble_62.wav,modgang_reversed.wav,ørken_reversed.wav,,,,,0,21,21,21,left,0.6199100017547607,left,1,forår,gidsel,5567,001,2025-11-28_14-28-04,
68,hjerte_compressed.wav,positive,hjerte,fremskridt,babble_35.wav,statue_reversed.wav,lampe_reversed.wav,,,,,0,22,22,22,left,1.221649169921875,left,1,hjerte,fremskridt,5567,001,2025-11-28_14-28-04,
42,festlig_compressed.wav,positive,festlig,rotte,babble_52.wav,sikker_reversed.wav,utro_reversed.wav,,,,,0,23,23,23,right,1.2530560493469238,right,1,rotte,festlig,5567,001,2025-11-28_14-28-04,
59,varme_compressed.wav,positive,varme,festlig,babble_24.wav,kiste_reversed.wav,ørken_reversed.wav,,,,,0,24,24,24,left,0.7614290714263916,left,1,varme,festlig,5567,001,2025-11-28_14-28-04,
75,frihed_compressed.wav,positive,frihed,tortur,babble_34.wav,dæmpet_reversed.wav,konkurs_reversed.wav,,,,,0,25,25,25,left,1.303786039352417,left,1,frihed,tortur,5567,001,2025-11-28_14-28-04,
89,violin_compressed.wav,neutral,violin,ensom,babble_45.wav,skyldig_reversed.wav,putte_reversed.wav,,,,,0,26,26,26,right,0.5157020092010498,right,1,ensom,violin,5567,001,2025-11-28_14-28-04,
53,redskab_compressed.wav,neutral,redskab,taber,babble_63.wav,genert_reversed.wav,utro_reversed.wav,,,,,0,27,27,27,left,1.768202781677246,left,1,redskab,taber,5567,001,2025-11-28_14-28-04,
4,smerte_compressed.wav,negative,smerte,glæde,babble_80.wav,kage_reversed.wav,tilfreds_reversed.wav,,,,,0,28,28,28,right,0.3450489044189453,right,1,glæde,smerte,5567,001,2025-11-28_14-28-04,
21,måned_compressed.wav,neutral,måned,slagtning,babble_30.wav,ketchup_reversed.wav,måned_reversed.wav,,,,,0,29,29,29,left,0.5892140865325928,left,1,måned,slagtning,5567,001,2025-11-28_14-28-04,
40,maling_compressed.wav,neutral,maling,slagtning,babble_1.wav,ørken_reversed.wav,gratis_reversed.wav,,,,,0,30,30,30,left,0.6763110160827637,left,1,maling,slagtning,5567,001,2025-11-28_14-28-04,
1,ankel_compressed.wav,neutral,ankel,hage,babble_46.wav,brutal_reversed.wav,redskab_reversed.wav,,,,,0,31,31,31,right,1.2742271423339844,right,1,hage,ankel,5567,001,2025-11-28_14-28-04,
30,frelser_compressed.wav,positive,frelser,hage,babble_61.wav,viden_reversed.wav,rådden_reversed.wav,,,,,0,32,32,32,right,0.5061829090118408,right,1,hage,frelser,5567,001,2025-11-28_14-28-04,
66,ferie_compressed.wav,positive,ferie,beskidt,babble_25.wav,pjece_reversed.wav,fængsel_reversed.wav,,,,,0,33,33,33,left,2.002371072769165,right,0,beskidt,ferie,5567,001,2025-11-28_14-28-04,
83,ugle_compressed.wav,neutral,ugle,udskud,babble_75.wav,lyse_reversed.wav,voldtægt_reversed.wav,,,,,0,34,34,34,right,0.9473910331726074,right,1,udskud,ugle,5567,001,2025-11-28_14-28-04,
38,gidsel_compressed.wav,negative,gidsel,heldig,babble_85.wav,salat_reversed.wav,illoyal_reversed.wav,,,,,0,35,35,35,right,0.3728809356689453,right,1,heldig,gidsel,5567,001,2025-11-28_14-28-04,
39,grusom_compressed.wav,negative,grusom,penge,babble_17.wav,forpint_reversed.wav,gratis_reversed.wav,,,,,0,36,36,36,left,0.5225858688354492,left,1,grusom,penge,5567,001,2025-11-28_14-28-04,
28,forkert_compressed.wav,negative,forkert,fængsel,babble_44.wav,regnbue_reversed.wav,drukne_reversed.wav,,,,,0,37,37,37,right,0.8581888675689697,right,1,fængsel,forkert,5567,001,2025-11-28_14-28-04,
64,skade_compressed.wav,negative,skade,fremskridt,babble_43.wav,hjerte_reversed.wav,ensom_reversed.wav,,,,,0,38,38,38,right,3.8645129203796387,right,1,fremskridt,skade,5567,001,2025-11-28_14-28-04,
8,ydmyg_compressed.wav,neutral,ydmyg,kedel,babble_99.wav,opstemt_reversed.wav,leder_reversed.wav,,,,,0,39,39,39,right,1.6126189231872559,right,1,kedel,ydmyg,5567,001,2025-11-28_14-28-04,
60,beundret_compressed.wav,positive,beundret,sindssyg,babble_80.wav,poesi_reversed.wav,ønske_reversed.wav,,,,,0,40,40,40,left,0.5353918075561523,left,1,beundret,sindssyg,5567,001,2025-11-28_14-28-04,
22,marked_compressed.wav,neutral,marked,violin,babble_81.wav,bifald_reversed.wav,grimme_reversed.wav,,,,,0,41,41,41,left,0.9500150680541992,left,1,marked,violin,5567,001,2025-11-28_14-28-04,
72,penge_compressed.wav,positive,penge,spise,babble_14.wav,mester_reversed.wav,skade_reversed.wav,,,,,0,42,42,42,left,0.9770488739013672,left,1,penge,spise,5567,001,2025-11-28_14-28-04,
57,morder_compressed.wav,negative,morder,lærer,babble_48.wav,hånlig_reversed.wav,kujon_reversed.wav,,,,,0,43,43,43,right,0.517941951751709,right,1,lærer,morder,5567,001,2025-11-28_14-28-04,
55,metal_compressed.wav,neutral,metal,morder,babble_51.wav,viden_reversed.wav,smerte_reversed.wav,,,,,0,44,44,44,right,0.5017530918121338,right,1,morder,metal,5567,001,2025-11-28_14-28-04,
77,bryllup_compressed.wav,positive,bryllup,skyldig,babble_6.wav,baby_reversed.wav,rabies_reversed.wav,,,,,0,45,45,45,left,2.6654129028320312,left,1,bryllup,skyldig,5567,001,2025-11-28_14-28-04,
84,pude_compressed.wav,positive,pude,genert,babble_3.wav,engel_reversed.wav,violin_reversed.wav,,,,,0,46,46,46,left,0.4786648750305176,left,1,pude,genert,5567,001,2025-11-28_14-28-04,
79,kujon_compressed.wav,negative,kujon,hage,babble_22.wav,ketchup_reversed.wav,vindue_reversed.wav,,,,,0,47,47,47,left,1.54118013381958,right,0,hage,kujon,5567,001,2025-11-28_14-28-04,
50,passion_compressed.wav,positive,passion,borddug,babble_22.wav,sygdom_reversed.wav,vandal_reversed.wav,,,,,0,48,48,48,left,1.0093460083007812,left,1,passion,borddug,5567,001,2025-11-28_14-28-04,
63,ønske_compressed.wav,positive,ønske,frygtsom,babble_6.wav,oprør_reversed.wav,viden_reversed.wav,,,,,0,49,49,49,right,0.3495500087738037,right,1,frygtsom,ønske,5567,001,2025-11-28_14-28-04,
14,intim_compressed.wav,positive,intim,genstand,babble_51.wav,kedel_reversed.wav,grusom_reversed.wav,,,,,0,50,50,50,right,0.5909860134124756,right,1,genstand,intim,5567,001,2025-11-28_14-28-04,
74,kugle_compressed.wav,neutral,kugle,tumor,babble_39.wav,søsyg_reversed.wav,putte_reversed.wav,,,,,0,51,51,51,right,0.6011121273040771,right,1,tumor,kugle,5567,001,2025-11-28_14-28-04,
82,ugle_compressed.wav,neutral,ugle,udskud,babble_83.wav,venlig_reversed.wav,gade_reversed.wav,,,,,0,52,52,52,left,0.7300369739532471,left,1,ugle,udskud,5567,001,2025-11-28_14-28-04,
20,vinde_compressed.wav,positive,vinde,humor,babble_82.wav,engel_reversed.wav,konkurs_reversed.wav,,,,,0,53,53,53,right,0.9817948341369629,right,1,humor,vinde,5567,001,2025-11-28_14-28-04,
5,pervers_compressed.wav,negative,pervers,hader,babble_90.wav,succes_reversed.wav,fremskridt_reversed.wav,,,,,0,54,54,54,right,0.7387721538543701,right,1,hader,pervers,5567,001,2025-11-28_14-28-04,
62,redskab_compressed.wav,neutral,redskab,lampe,babble_34.wav,ketchup_reversed.wav,tilfreds_reversed.wav,,,,,0,55,55,55,left,0.600836992263794,left,1,redskab,lampe,5567,001,2025-11-28_14-28-04,
2,heldig_compressed.wav,positive,heldig,lækker,babble_47.wav,maling_reversed.wav,morder_reversed.wav,,,,,0,56,56,56,right,1.8418409824371338,right,1,lækker,heldig,5567,001,2025-11-28_14-28-04,
78,voldsom_compressed.wav,negative,voldsom,bryllup,babble_54.wav,djævel_reversed.wav,dæmon_reversed.wav,,,,,0,57,57,57,right,0.433103084564209,right,1,bryllup,voldsom,5567,001,2025-11-28_14-28-04,
71,hårnål_compressed.wav,neutral,hårnål,voldsom,babble_78.wav,fiasko_reversed.wav,grimme_reversed.wav,,,,,0,58,58,58,right,1.309413194656372,right,1,voldsom,hårnål,5567,001,2025-11-28_14-28-04,
13,kontor_compressed.wav,neutral,kontor,udskud,babble_13.wav,hader_reversed.wav,rotte_reversed.wav,,,,,0,59,59,59,left,0.5914011001586914,left,1,kontor,udskud,5567,001,2025-11-28_14-28-04,
54,bange_compressed.wav,negative,bange,genert,babble_49.wav,patent_reversed.wav,pervers_reversed.wav,,,,,0,60,60,60,left,0.600355863571167,left,1,bange,genert,5567,001,2025-11-28_14-28-04,
23,ugle_compressed.wav,neutral,ugle,avis,babble_96.wav,gratis_reversed.wav,albue_reversed.wav,,,,,0,61,61,61,left,0.7423038482666016,left,1,ugle,avis,5567,001,2025-11-28_14-28-04,
51,fjendtlig_compressed.wav,negative,fjendtlig,opstemt,babble_61.wav,patent_reversed.wav,baby_reversed.wav,,,,,0,62,62,62,right,1.1425158977508545,right,1,opstemt,fjendtlig,5567,001,2025-11-28_14-28-04,
76,passion_compressed.wav,positive,passion,grimme,babble_83.wav,nonne_reversed.wav,boble_reversed.wav,,,,,0,63,63,63,left,0.6956980228424072,left,1,passion,grimme,5567,001,2025-11-28_14-28-04,
44,oprør_compressed.wav,negative,oprør,jubel,babble_64.wav,mester_reversed.wav,heldig_reversed.wav,,,,,0,64,64,64,right,4.149467945098877,right,1,jubel,oprør,5567,001,2025-11-28_14-28-04,
49,borddug_compressed.wav,neutral,borddug,luksus,babble_48.wav,himmel_reversed.wav,kugle_reversed.wav,,,,,0,65,65,65,left,2.5800559520721436,left,1,borddug,luksus,5567,001,2025-11-28_14-28-04,
36,bombe_compressed.wav,negative,bombe,flirte,babble_20.wav,grimme_reversed.wav,jubel_reversed.wav,,,,,0,66,66,66,right,0.7983429431915283,right,1,flirte,bombe,5567,001,2025-11-28_14-28-04,
58,kvæles_compressed.wav,negative,kvæles,tumor,babble_74.wav,ønske_reversed.wav,ørken_reversed.wav,,,,,0,67,67,67,right,1.258908987045288,right,1,tumor,kvæles,5567,001,2025-11-28_14-28-04,
52,sindssyg_compressed.wav,negative,sindssyg,skyldig,babble_71.wav,bange_reversed.wav,tortur_reversed.wav,,,,,0,68,68,68,left,0.5098369121551514,left,1,sindssyg,skyldig,5567,001,2025-11-28_14-28-04,
16,kærtegn_compressed.wav,positive,kærtegn,kedel,babble_70.wav,cirkel_reversed.wav,slagtning_reversed.wav,,,,,0,69,69,69,left,0.5588011741638184,left,1,kærtegn,kedel,5567,001,2025-11-28_14-28-04,
24,brænde_compressed.wav,negative,brænde,heldig,babble_26.wav,voldtægt_reversed.wav,ugle_reversed.wav,,,,,0,70,70,70,right,0.9159591197967529,right,1,heldig,brænde,5567,001,2025-11-28_14-28-04,
70,brutal_compressed.wav,negative,brutal,ære,babble_74.wav,ankel_reversed.wav,marked_reversed.wav,,,,,0,71,71,71,right,0.941093921661377,right,1,ære,brutal,5567,001,2025-11-28_14-28-04,
87,metal_compressed.wav,neutral,metal,albue,babble_96.wav,lampe_reversed.wav,gidsel_reversed.wav,,,,,0,72,72,72,left,0.6408910751342773,left,1,metal,albue,5567,001,2025-11-28_14-28-04,
34,papir_compressed.wav,neutral,papir,affald,babble_16.wav,violin_reversed.wav,jubel_reversed.wav,,,,,0,73,73,73,left,0.6913509368896484,left,1,papir,affald,5567,001,2025-11-28_14-28-04,
9,papir_compressed.wav,neutral,papir,hånlig,babble_4.wav,syndig_reversed.wav,skade_reversed.wav,,,,,0,74,74,74,right,0.6106410026550293,right,1,hånlig,papir,5567,001,2025-11-28_14-28-04,
27,lærer_compressed.wav,neutral,lærer,voldtægt,babble_64.wav,kiste_reversed.wav,utro_reversed.wav,,,,,0,75,75,75,right,0.6342439651489258,right,1,voldtægt,lærer,5567,001,2025-11-28_14-28-04,
25,hader_compressed.wav,negative,hader,engel,babble_67.wav,smerte_reversed.wav,tilfreds_reversed.wav,,,,,0,76,76,76,left,0.9854738712310791,left,1,hader,engel,5567,001,2025-11-28_14-28-04,
73,djævel_compressed.wav,negative,djævel,frihed,babble_2.wav,mave_reversed.wav,lampe_reversed.wav,,,,,0,77,77,77,left,1.8420209884643555,right,0,frihed,djævel,5567,001,2025-11-28_14-28-04,
43,gidsel_compressed.wav,negative,gidsel,vandal,babble_44.wav,fedme_reversed.wav,morder_reversed.wav,,,,,0,78,78,78,left,0.9772450923919678,left,1,gidsel,vandal,5567,001,2025-11-28_14-28-04,
61,grusom_compressed.wav,negative,grusom,lækker,babble_60.wav,mester_reversed.wav,redskab_reversed.wav,,,,,0,79,79,79,right,0.5512731075286865,right,1,lækker,grusom,5567,001,2025-11-28_14-28-04,
26,regnbue_compressed.wav,positive,regnbue,knude,babble_94.wav,sygdom_reversed.wav,rotte_reversed.wav,,,,,0,80,80,80,left,1.3043780326843262,left,1,regnbue,knude,5567,001,2025-11-28_14-28-04,
86,kage_compressed.wav,positive,kage,ankel,babble_9.wav,pude_reversed.wav,fjendtlig_reversed.wav,,,,,0,81,81,81,left,0.3692200183868408,left,1,kage,ankel,5567,001,2025-11-28_14-28-04,
33,ankel_compressed.wav,neutral,ankel,leder,babble_81.wav,ønske_reversed.wav,bifald_reversed.wav,,,,,0,82,82,82,right,0.3591189384460449,right,1,leder,ankel,5567,001,2025-11-28_14-28-04,
46,borddug_compressed.wav,neutral,borddug,traume,babble_29.wav,maling_reversed.wav,drukne_reversed.wav,,,,,0,83,83,83,left,0.33897900581359863,left,1,borddug,traume,5567,001,2025-11-28_14-28-04,
67,rigdom_compressed.wav,positive,rigdom,fase,babble_37.wav,salat_reversed.wav,pjece_reversed.wav,,,,,0,84,84,84,right,1.8616290092468262,left,0,rigdom,fase,5567,001,2025-11-28_14-28-04,
