trial_i,prime_file,prime_valence,correct_word,distractor_word,babbling_file,mask1_file,mask2_file,practice.thisRepN,practice.thisTrialN,practice.thisN,practice.thisIndex,main.thisRepN,main.thisTrialN,main.thisN,main.thisIndex,thisRow.t,notes,response_key,rt,correct_key,accuracy,left_word,right_word,Participant ID,Session,date,
74,stjerne_compressed.wav,positive,stjerne,cirkus,babble_62.wav,giftig_reversed.wav,affald_reversed.wav,0,0,0,0,0,-1,-1,0,,,right,2.0304824999984703,right,1,cirkus,stjerne,delete_later,001,2025-11-23_22-11-50,
11,sejre_compressed.wav,positive,sejre,kontor,babble_44.wav,bange_reversed.wav,kande_reversed.wav,0,1,1,1,0,-1,-1,0,,,left,1.4118159580029896,right,0,kontor,sejre,delete_later,001,2025-11-23_22-11-50,
72,humor_compressed.wav,positive,humor,sikker,babble_61.wav,knude_reversed.wav,hånlig_reversed.wav,0,2,2,2,0,-1,-1,0,,,right,0.7018147920025513,right,1,sikker,humor,delete_later,001,2025-11-23_22-11-50,
17,oprørt_compressed.wav,negative,oprørt,stjerne,babble_10.wav,slagtning_reversed.wav,opstemt_reversed.wav,0,3,3,3,0,-1,-1,0,,,right,1.4580074999976205,left,0,oprørt,stjerne,delete_later,001,2025-11-23_22-11-50,
13,feber_compressed.wav,negative,feber,baby,babble_69.wav,grusom_reversed.wav,putte_reversed.wav,0,4,4,4,0,-1,-1,0,,,right,0.673805040998559,right,1,baby,feber,delete_later,001,2025-11-23_22-11-50,
28,opstemt_compressed.wav,positive,opstemt,mester,babble_55.wav,sæde_reversed.wav,lærer_reversed.wav,,,,,0,0,0,0,,,right,1.396081958002469,left,0,opstemt,mester,delete_later,001,2025-11-23_22-11-50,
92,vinde_compressed.wav,positive,vinde,accept,babble_24.wav,kujon_reversed.wav,festlig_reversed.wav,,,,,0,1,1,1,,,left,0.8085685839978396,left,1,vinde,accept,delete_later,001,2025-11-23_22-11-50,
39,pjece_compressed.wav,neutral,pjece,festlig,babble_53.wav,frygtsom_reversed.wav,gade_reversed.wav,,,,,0,2,2,2,,,right,0.9518550420034444,right,1,festlig,pjece,delete_later,001,2025-11-23_22-11-50,
90,forkert_compressed.wav,negative,forkert,sollys,babble_15.wav,leder_reversed.wav,oprørt_reversed.wav,,,,,0,3,3,3,,,right,0.9789127089970862,right,1,sollys,forkert,delete_later,001,2025-11-23_22-11-50,
52,avis_compressed.wav,neutral,avis,kæle,babble_80.wav,dæmpet_reversed.wav,rædsel_reversed.wav,,,,,0,4,4,4,,,left,0.9863127089993213,left,1,avis,kæle,delete_later,001,2025-11-23_22-11-50,
83,tilfreds_compressed.wav,positive,tilfreds,feber,babble_52.wav,modgang_reversed.wav,viden_reversed.wav,,,,,0,5,5,5,,,left,1.0867568749963539,left,1,tilfreds,feber,delete_later,001,2025-11-23_22-11-50,
103,cirkel_compressed.wav,neutral,cirkel,sæde,babble_88.wav,rotte_reversed.wav,nedbrud_reversed.wav,,,,,0,6,6,6,,,left,1.745527207996929,left,1,cirkel,sæde,delete_later,001,2025-11-23_22-11-50,
109,accept_compressed.wav,positive,accept,luder,babble_38.wav,bombe_reversed.wav,illoyal_reversed.wav,,,,,0,7,7,7,,,left,1.1317059579960187,left,1,accept,luder,delete_later,001,2025-11-23_22-11-50,
23,selvmord_compressed.wav,negative,selvmord,kage,babble_10.wav,sygdom_reversed.wav,venlig_reversed.wav,,,,,0,8,8,8,,,right,0.9942862089956179,right,1,kage,selvmord,delete_later,001,2025-11-23_22-11-50,
21,pude_compressed.wav,positive,pude,kiste,babble_47.wav,brutal_reversed.wav,trussel_reversed.wav,,,,,0,9,9,9,,,left,0.7842738749968703,left,1,pude,kiste,delete_later,001,2025-11-23_22-11-50,
54,kiste_compressed.wav,negative,kiste,ørken,babble_75.wav,salat_reversed.wav,kujon_reversed.wav,,,,,0,10,10,10,,,right,1.2529512090040953,right,1,ørken,kiste,delete_later,001,2025-11-23_22-11-50,
43,ære_compressed.wav,positive,ære,rædsel,babble_61.wav,rotte_reversed.wav,trussel_reversed.wav,,,,,0,11,11,11,,,right,0.7914273339993088,right,1,rædsel,ære,delete_later,001,2025-11-23_22-11-50,
85,forår_compressed.wav,positive,forår,redskab,babble_14.wav,måned_reversed.wav,metal_reversed.wav,,,,,0,12,12,12,,,right,1.5262884580006357,right,1,redskab,forår,delete_later,001,2025-11-23_22-11-50,
75,forkert_compressed.wav,negative,forkert,trofæ,babble_38.wav,skade_reversed.wav,affald_reversed.wav,,,,,0,13,13,13,,,right,1.0536542080008076,left,0,forkert,trofæ,delete_later,001,2025-11-23_22-11-50,
20,nedbrud_compressed.wav,negative,nedbrud,sindssyg,babble_5.wav,himlen_reversed.wav,magisk_reversed.wav,,,,,0,14,14,14,,,right,1.9990498749975814,right,1,sindssyg,nedbrud,delete_later,001,2025-11-23_22-11-50,
1,giftig_compressed.wav,negative,giftig,viden,babble_71.wav,fremskridt_reversed.wav,genstand_reversed.wav,,,,,0,15,15,15,,,left,1.0247889589954866,right,0,viden,giftig,delete_later,001,2025-11-23_22-11-50,
63,humor_compressed.wav,positive,humor,blomstre,babble_73.wav,giftig_reversed.wav,ferie_reversed.wav,,,,,0,16,16,16,,,right,0.30895212500035996,left,0,humor,blomstre,delete_later,001,2025-11-23_22-11-50,
29,smerte_compressed.wav,negative,smerte,kage,babble_5.wav,museum_reversed.wav,grusom_reversed.wav,,,,,0,17,17,17,,,left,0.24646466600097483,left,1,smerte,kage,delete_later,001,2025-11-23_22-11-50,
66,fjollet_compressed.wav,positive,fjollet,slave,babble_81.wav,smerte_reversed.wav,kærtegn_reversed.wav,,,,,0,18,18,18,,,right,0.9114520410003024,left,0,fjollet,slave,delete_later,001,2025-11-23_22-11-50,
111,fedme_compressed.wav,negative,fedme,røver,babble_57.wav,søsyg_reversed.wav,spænding_reversed.wav,,,,,0,19,19,19,,,left,1.3145948750025127,left,1,fedme,røver,delete_later,001,2025-11-23_22-11-50,
16,kande_compressed.wav,neutral,kande,sygdom,babble_47.wav,respekt_reversed.wav,slagtning_reversed.wav,,,,,0,20,20,20,,,left,0.8495098749990575,left,1,kande,sygdom,delete_later,001,2025-11-23_22-11-50,
117,gave_compressed.wav,positive,gave,offer,babble_97.wav,enhed_reversed.wav,kande_reversed.wav,,,,,0,21,21,21,,,right,0.706857791999937,right,1,offer,gave,delete_later,001,2025-11-23_22-11-50,
47,minder_compressed.wav,positive,minder,regnbue,babble_12.wav,drukne_reversed.wav,enhed_reversed.wav,,,,,0,22,22,22,,,right,0.9478218749936786,left,0,minder,regnbue,delete_later,001,2025-11-23_22-11-50,
65,maling_compressed.wav,neutral,maling,musik,babble_33.wav,fase_reversed.wav,ketchup_reversed.wav,,,,,0,23,23,23,,,left,0.6327033330017002,left,1,maling,musik,delete_later,001,2025-11-23_22-11-50,
57,fremskridt_compressed.wav,positive,fremskridt,bygning,babble_22.wav,affald_reversed.wav,vinde_reversed.wav,,,,,0,24,24,24,,,right,0.7268161250030971,right,1,bygning,fremskridt,delete_later,001,2025-11-23_22-11-50,
46,plakat_compressed.wav,neutral,plakat,dæmpet,babble_66.wav,nedbrud_reversed.wav,sandhed_reversed.wav,,,,,0,25,25,25,,,left,0.9480432500058669,right,0,dæmpet,plakat,delete_later,001,2025-11-23_22-11-50,
45,hage_compressed.wav,neutral,hage,væmmes,babble_54.wav,skønhed_reversed.wav,flirte_reversed.wav,,,,,0,26,26,26,,,left,1.2682472080050502,left,1,hage,væmmes,delete_later,001,2025-11-23_22-11-50,
4,hader_compressed.wav,negative,hader,nedbrud,babble_61.wav,putte_reversed.wav,sejre_reversed.wav,,,,,0,27,27,27,,,right,0.8654448329980369,right,1,nedbrud,hader,delete_later,001,2025-11-23_22-11-50,
100,kage_compressed.wav,positive,kage,gaffel,babble_92.wav,talent_reversed.wav,gave_reversed.wav,,,,,0,28,28,28,,,left,0.3363065829980769,left,1,kage,gaffel,delete_later,001,2025-11-23_22-11-50,
15,frygtsom_compressed.wav,negative,frygtsom,gaffel,babble_65.wav,konge_reversed.wav,redning_reversed.wav,,,,,0,29,29,29,,,right,1.085433833002753,right,1,gaffel,frygtsom,delete_later,001,2025-11-23_22-11-50,
67,grimme_compressed.wav,negative,grimme,kiste,babble_69.wav,ferie_reversed.wav,genstand_reversed.wav,,,,,0,30,30,30,,,right,0.7833072080029524,left,0,grimme,kiste,delete_later,001,2025-11-23_22-11-50,
6,misbrug_compressed.wav,negative,misbrug,dæmpet,babble_72.wav,selvmord_reversed.wav,taber_reversed.wav,,,,,0,31,31,31,,,right,0.786801917005505,right,1,dæmpet,misbrug,delete_later,001,2025-11-23_22-11-50,
62,taber_compressed.wav,negative,taber,djævel,babble_2.wav,nøgle_reversed.wav,baby_reversed.wav,,,,,0,32,32,32,,,left,0.6663631670016912,right,0,djævel,taber,delete_later,001,2025-11-23_22-11-50,
69,nonsens_compressed.wav,neutral,nonsens,talent,babble_0.wav,mester_reversed.wav,vinde_reversed.wav,,,,,0,33,33,33,,,left,0.8783650840050541,right,0,talent,nonsens,delete_later,001,2025-11-23_22-11-50,
80,voldtægt_compressed.wav,negative,voldtægt,mester,babble_99.wav,trofæ_reversed.wav,diamant_reversed.wav,,,,,0,34,34,34,,,left,1.4805410829940229,left,1,voldtægt,mester,delete_later,001,2025-11-23_22-11-50,
18,knude_compressed.wav,neutral,knude,hjerte,babble_20.wav,lyse_reversed.wav,opstemt_reversed.wav,,,,,0,35,35,35,,,left,0.6777470420056488,left,1,knude,hjerte,delete_later,001,2025-11-23_22-11-50,
105,konge_compressed.wav,positive,konge,diamant,babble_80.wav,røver_reversed.wav,viden_reversed.wav,,,,,0,36,36,36,,,right,0.6218890409945743,right,1,diamant,konge,delete_later,001,2025-11-23_22-11-50,
112,rædsel_compressed.wav,negative,rædsel,ønske,babble_48.wav,regnbue_reversed.wav,tilfreds_reversed.wav,,,,,0,37,37,37,,,left,1.2142678329983028,left,1,rædsel,ønske,delete_later,001,2025-11-23_22-11-50,
59,røver_compressed.wav,negative,røver,ørken,babble_72.wav,venlig_reversed.wav,nonne_reversed.wav,,,,,0,38,38,38,,,right,0.8437260420032544,left,0,røver,ørken,delete_later,001,2025-11-23_22-11-50,
97,venlig_compressed.wav,positive,venlig,papir,babble_79.wav,bange_reversed.wav,kage_reversed.wav,,,,,0,39,39,39,,,left,0.4844427080024616,left,1,venlig,papir,delete_later,001,2025-11-23_22-11-50,
114,salat_compressed.wav,neutral,salat,gratis,babble_25.wav,banner_reversed.wav,sikker_reversed.wav,,,,,0,40,40,40,,,left,0.5316623339967919,left,1,salat,gratis,delete_later,001,2025-11-23_22-11-50,
32,patent_compressed.wav,neutral,patent,konkurs,babble_85.wav,lækker_reversed.wav,leder_reversed.wav,,,,,0,41,41,41,,,left,0.27056254199851537,left,1,patent,konkurs,delete_later,001,2025-11-23_22-11-50,
86,ledning_compressed.wav,neutral,ledning,feber,babble_60.wav,sejre_reversed.wav,nøgle_reversed.wav,,,,,0,42,42,42,,,left,0.2650832500003162,left,1,ledning,feber,delete_later,001,2025-11-23_22-11-50,
96,grusom_compressed.wav,negative,grusom,bygning,babble_44.wav,kiste_reversed.wav,rabies_reversed.wav,,,,,0,43,43,43,,,right,0.48581062499579275,right,1,bygning,grusom,delete_later,001,2025-11-23_22-11-50,
93,drukne_compressed.wav,negative,drukne,udskud,babble_83.wav,sikker_reversed.wav,trofæ_reversed.wav,,,,,0,44,44,44,,,left,0.6782451249964652,right,0,udskud,drukne,delete_later,001,2025-11-23_22-11-50,
71,diamant_compressed.wav,positive,diamant,sikker,babble_22.wav,mester_reversed.wav,boble_reversed.wav,,,,,0,45,45,45,,,right,0.5639972909993958,right,1,sikker,diamant,delete_later,001,2025-11-23_22-11-50,
107,enhed_compressed.wav,neutral,enhed,hader,babble_12.wav,modgang_reversed.wav,skade_reversed.wav,,,,,0,46,46,46,,,left,0.8569677090054029,left,1,enhed,hader,delete_later,001,2025-11-23_22-11-50,
50,ledning_compressed.wav,neutral,ledning,engel,babble_26.wav,beskidt_reversed.wav,kage_reversed.wav,,,,,0,47,47,47,,,right,0.7302141250038403,left,0,ledning,engel,delete_later,001,2025-11-23_22-11-50,
79,affald_compressed.wav,negative,affald,sejre,babble_86.wav,fjollet_reversed.wav,kugle_reversed.wav,,,,,0,48,48,48,,,left,0.5370373749974533,right,0,sejre,affald,delete_later,001,2025-11-23_22-11-50,
115,kedel_compressed.wav,neutral,kedel,hader,babble_67.wav,bygning_reversed.wav,latter_reversed.wav,,,,,0,49,49,49,,,right,0.564581917002215,left,0,kedel,hader,delete_later,001,2025-11-23_22-11-50,
3,cirkus_compressed.wav,positive,cirkus,viden,babble_54.wav,vinde_reversed.wav,luksus_reversed.wav,,,,,0,50,50,50,,,left,0.3063597079963074,right,0,viden,cirkus,delete_later,001,2025-11-23_22-11-50,
118,søsyg_compressed.wav,negative,søsyg,magisk,babble_44.wav,illoyal_reversed.wav,boble_reversed.wav,,,,,0,51,51,51,,,left,0.3513225409988081,left,1,søsyg,magisk,delete_later,001,2025-11-23_22-11-50,
34,himmel_compressed.wav,positive,himmel,rådden,babble_30.wav,gidsel_reversed.wav,illoyal_reversed.wav,,,,,0,52,52,52,,,left,1.3387744999999995,left,1,himmel,rådden,delete_later,001,2025-11-23_22-11-50,
98,mave_compressed.wav,neutral,mave,cirkus,babble_94.wav,engel_reversed.wav,respekt_reversed.wav,,,,,0,53,53,53,,,left,1.1272602090029977,left,1,mave,cirkus,delete_later,001,2025-11-23_22-11-50,
58,kontor_compressed.wav,neutral,kontor,gade,babble_66.wav,ønske_reversed.wav,kærtegn_reversed.wav,,,,,0,54,54,54,,,right,0.7894083330029389,left,0,kontor,gade,delete_later,001,2025-11-23_22-11-50,
27,vindue_compressed.wav,neutral,vindue,skuffe,babble_60.wav,slagtning_reversed.wav,violin_reversed.wav,,,,,0,55,55,55,,,left,0.9693660829943838,right,0,skuffe,vindue,delete_later,001,2025-11-23_22-11-50,
44,minder_compressed.wav,positive,minder,slagtning,babble_74.wav,redning_reversed.wav,bombe_reversed.wav,,,,,0,56,56,56,,,right,0.8867149579964462,right,1,slagtning,minder,delete_later,001,2025-11-23_22-11-50,
37,måned_compressed.wav,neutral,måned,kærtegn,babble_81.wav,regnbue_reversed.wav,selvmord_reversed.wav,,,,,0,57,57,57,,,right,0.8562677499940037,right,1,kærtegn,måned,delete_later,001,2025-11-23_22-11-50,
22,kedel_compressed.wav,neutral,kedel,taber,babble_14.wav,nonsens_reversed.wav,kande_reversed.wav,,,,,0,58,58,58,,,left,0.41761091700027464,left,1,kedel,taber,delete_later,001,2025-11-23_22-11-50,
104,kæle_compressed.wav,positive,kæle,gave,babble_77.wav,affald_reversed.wav,patent_reversed.wav,,,,,0,59,59,59,,,right,0.5616669999944861,right,1,gave,kæle,delete_later,001,2025-11-23_22-11-50,
61,motor_compressed.wav,neutral,motor,ketchup,babble_94.wav,borddug_reversed.wav,slave_reversed.wav,,,,,0,60,60,60,,,left,0.8924494579987368,left,1,motor,ketchup,delete_later,001,2025-11-23_22-11-50,
49,knude_compressed.wav,neutral,knude,finger,babble_36.wav,kujon_reversed.wav,skammel_reversed.wav,,,,,0,61,61,61,,,left,0.5817005409990088,left,1,knude,finger,delete_later,001,2025-11-23_22-11-50,
106,salat_compressed.wav,neutral,salat,kage,babble_1.wav,taxa_reversed.wav,heldig_reversed.wav,,,,,0,62,62,62,,,left,0.4663696659990819,left,1,salat,kage,delete_later,001,2025-11-23_22-11-50,
48,sygdom_compressed.wav,negative,sygdom,stjerne,babble_63.wav,kugle_reversed.wav,glæde_reversed.wav,,,,,0,63,63,63,,,right,1.0257401669950923,left,0,sygdom,stjerne,delete_later,001,2025-11-23_22-11-50,
76,metal_compressed.wav,neutral,metal,viden,babble_49.wav,kiste_reversed.wav,frihed_reversed.wav,,,,,0,64,64,64,,,left,0.7330582919967128,left,1,metal,viden,delete_later,001,2025-11-23_22-11-50,
24,tilfreds_compressed.wav,positive,tilfreds,pervers,babble_46.wav,bombe_reversed.wav,respekt_reversed.wav,,,,,0,65,65,65,,,left,0.8334316249965923,left,1,tilfreds,pervers,delete_later,001,2025-11-23_22-11-50,
91,penge_compressed.wav,positive,penge,latter,babble_28.wav,forfald_reversed.wav,sæde_reversed.wav,,,,,0,66,66,66,,,left,1.0085836669968558,right,0,latter,penge,delete_later,001,2025-11-23_22-11-50,
2,måned_compressed.wav,neutral,måned,plakat,babble_96.wav,rigdom_reversed.wav,skade_reversed.wav,,,,,0,67,67,67,,,right,0.3783952909943764,left,0,måned,plakat,delete_later,001,2025-11-23_22-11-50,
108,accept_compressed.wav,positive,accept,gratis,babble_82.wav,jubel_reversed.wav,putte_reversed.wav,,,,,0,68,68,68,,,right,0.7888994999957504,right,1,gratis,accept,delete_later,001,2025-11-23_22-11-50,
77,hage_compressed.wav,neutral,hage,skuffe,babble_16.wav,grimme_reversed.wav,putte_reversed.wav,,,,,0,69,69,69,,,right,0.450814083997102,right,1,skuffe,hage,delete_later,001,2025-11-23_22-11-50,
55,koldbrand_compressed.wav,negative,koldbrand,violin,babble_55.wav,kedel_reversed.wav,sollys_reversed.wav,,,,,0,70,70,70,,,left,1.6507635000016307,left,1,koldbrand,violin,delete_later,001,2025-11-23_22-11-50,
70,fjendtlig_compressed.wav,negative,fjendtlig,succes,babble_96.wav,skuffe_reversed.wav,flirte_reversed.wav,,,,,0,71,71,71,,,left,0.9101775829985854,left,1,fjendtlig,succes,delete_later,001,2025-11-23_22-11-50,
42,patent_compressed.wav,neutral,patent,skade,babble_24.wav,bombe_reversed.wav,kande_reversed.wav,,,,,0,72,72,72,,,right,0.24786925000080373,right,1,skade,patent,delete_later,001,2025-11-23_22-11-50,
5,baby_compressed.wav,positive,baby,gaffel,babble_4.wav,tumor_reversed.wav,ferie_reversed.wav,,,,,0,73,73,73,,,left,0.6614791669999249,right,0,gaffel,baby,delete_later,001,2025-11-23_22-11-50,
,,,,,,,,,,,,,,,,,,escape,0.3433352920037578,right,0,hånlig,brænde,,,,
