signal_type,compression_level,prime_file,correct_word,babbling_file,mask1_file,mask2_file,practice.thisRepN,practice.thisTrialN,practice.thisN,practice.thisIndex,main.thisRepN,main.thisTrialN,main.thisN,main.thisIndex,thisRow.t,notes,response_key,rt,trial_outcome,babble_duration,Participant ID,Session,date,
absent,0.4,SILENCE,NA,babble_11.wav,dæmpet_reversed.wav,avis_reversed.wav,0,0,0,0,0,-1,-1,0,,,z,5.783943042000828,Correct Rejection,0.6631401998090563,1133445,001,2025-11-22_15-56-50,
absent,0.1,SILENCE,NA,babble_2.wav,konkurs_reversed.wav,trussel_reversed.wav,0,1,1,1,0,-1,-1,0,,,z,1.606482541999867,Correct Rejection,1.0701250845891845,1133445,001,2025-11-22_15-56-50,
absent,0.3,SILENCE,NA,babble_19.wav,avis_reversed.wav,ørken_reversed.wav,0,2,2,2,0,-1,-1,0,,,z,1.7131137910000689,Correct Rejection,0.8960125283519298,1133445,001,2025-11-22_15-56-50,
absent,0.2,SILENCE,NA,babble_33.wav,djævel_reversed.wav,dæmpet_reversed.wav,0,3,3,3,0,-1,-1,0,,,z,1.5968569169999682,Correct Rejection,1.0808163431878048,1133445,001,2025-11-22_15-56-50,
present,0.1,himmel_compressed.wav,himmel,babble_75.wav,genert_reversed.wav,skønhed_reversed.wav,0,4,4,4,0,-1,-1,0,,,z,4.074321166999653,Miss,0.9588751334213019,1133445,001,2025-11-22_15-56-50,
present,0.7,giftig_compressed.wav,giftig,babble_87.wav,ledning_reversed.wav,lampe_reversed.wav,0,5,5,5,0,-1,-1,0,,,z,3.341178332999334,Miss,0.7470922372869039,1133445,001,2025-11-22_15-56-50,
absent,0.6,SILENCE,NA,babble_1.wav,sejre_reversed.wav,kage_reversed.wav,0,6,6,6,0,-1,-1,0,,,m,2.3590226249998523,False Alarm,1.2005216296540206,1133445,001,2025-11-22_15-56-50,
absent,0.5,SILENCE,NA,babble_76.wav,natur_reversed.wav,kiste_reversed.wav,0,7,7,7,0,-1,-1,0,,,z,2.76824866700008,Correct Rejection,0.932284299052219,1133445,001,2025-11-22_15-56-50,
absent,0.7,SILENCE,NA,babble_97.wav,nonsens_reversed.wav,taxa_reversed.wav,0,8,8,8,0,-1,-1,0,,,m,1.3457007920005708,False Alarm,0.5424802373724139,1133445,001,2025-11-22_15-56-50,
present,0.5,latter_compressed.wav,latter,babble_82.wav,lærer_reversed.wav,gratis_reversed.wav,0,9,9,9,0,-1,-1,0,,,z,17.08780737500092,Miss,1.343981312087319,1133445,001,2025-11-22_15-56-50,
present,0.3,nonne_compressed.wav,nonne,babble_91.wav,skade_reversed.wav,hage_reversed.wav,0,10,10,10,0,-1,-1,0,,,z,4.488162917001318,Miss,1.4911526204866674,1133445,001,2025-11-22_15-56-50,
present,0.2,offer_compressed.wav,offer,babble_97.wav,sandhed_reversed.wav,museum_reversed.wav,0,11,11,11,0,-1,-1,0,,,z,1.6990453750004235,Miss,0.7247949530109575,1133445,001,2025-11-22_15-56-50,
present,0.4,kedel_compressed.wav,kedel,babble_17.wav,mave_reversed.wav,respekt_reversed.wav,0,12,12,12,0,-1,-1,0,,,z,1.8548969169987686,Miss,1.4097831064665964,1133445,001,2025-11-22_15-56-50,
present,0.6,hader_compressed.wav,hader,babble_30.wav,nøgle_reversed.wav,affald_reversed.wav,0,13,13,13,0,-1,-1,0,,,z,0.6339413330006209,Miss,1.3918795781553128,1133445,001,2025-11-22_15-56-50,
absent,0.5,SILENCE,NA,babble_10.wav,sikker_reversed.wav,skade_reversed.wav,,,,,0,0,0,0,,,z,1.2531118750011956,Correct Rejection,1.4932994306176708,1133445,001,2025-11-22_15-56-50,
absent,0.7,SILENCE,NA,babble_0.wav,traume_reversed.wav,ankel_reversed.wav,,,,,0,1,1,1,,,z,0.3039450830001442,Correct Rejection,0.9504832913693904,1133445,001,2025-11-22_15-56-50,
present,0.4,skammel_compressed.wav,skammel,babble_59.wav,sygdom_reversed.wav,mave_reversed.wav,,,,,0,2,2,2,,,z,0.4089510409976356,Miss,1.3875359110897039,1133445,001,2025-11-22_15-56-50,
absent,0.5,SILENCE,NA,babble_61.wav,oprørt_reversed.wav,beskidt_reversed.wav,,,,,0,3,3,3,,,z,0.5262396250000165,Correct Rejection,1.4440049721967683,1133445,001,2025-11-22_15-56-50,
absent,0.2,SILENCE,NA,babble_63.wav,dæmpet_reversed.wav,motor_reversed.wav,,,,,0,4,4,4,,,m,2.194265207999706,False Alarm,0.5683475875290682,1133445,001,2025-11-22_15-56-50,
present,0.6,skade_compressed.wav,skade,babble_38.wav,smerte_reversed.wav,festlig_reversed.wav,,,,,0,5,5,5,,,z,1.3421785840000666,Miss,1.3232389570364615,1133445,001,2025-11-22_15-56-50,
present,0.4,fængsel_compressed.wav,fængsel,babble_16.wav,varme_reversed.wav,ankel_reversed.wav,,,,,0,6,6,6,,,m,1.5494798330000776,Hit,0.5959164322563852,1133445,001,2025-11-22_15-56-50,
present,0.4,konge_compressed.wav,konge,babble_35.wav,ferie_reversed.wav,syndig_reversed.wav,,,,,0,7,7,7,,,z,0.30441066599814803,Miss,1.1970772614622418,1133445,001,2025-11-22_15-56-50,
absent,0.2,SILENCE,NA,babble_17.wav,traume_reversed.wav,engel_reversed.wav,,,,,0,8,8,8,,,z,0.42009583300023223,Correct Rejection,0.5997251230387963,1133445,001,2025-11-22_15-56-50,
present,0.2,udskud_compressed.wav,udskud,babble_38.wav,salat_reversed.wav,metal_reversed.wav,,,,,0,9,9,9,,,m,0.34913733299981686,Hit,1.1533164623126526,1133445,001,2025-11-22_15-56-50,
present,0.3,drukne_compressed.wav,drukne,babble_32.wav,forpint_reversed.wav,lærer_reversed.wav,,,,,0,10,10,10,,,z,0.2955278330009605,Miss,1.3015412318795545,1133445,001,2025-11-22_15-56-50,
present,0.5,cirkus_compressed.wav,cirkus,babble_30.wav,bombe_reversed.wav,papir_reversed.wav,,,,,0,11,11,11,,,z,0.5406012080020446,Miss,0.7216172839388858,1133445,001,2025-11-22_15-56-50,
absent,0.3,SILENCE,NA,babble_43.wav,pjece_reversed.wav,salat_reversed.wav,,,,,0,12,12,12,,,z,0.625722875000065,Correct Rejection,1.0842688181182414,1133445,001,2025-11-22_15-56-50,
absent,0.2,SILENCE,NA,babble_45.wav,avis_reversed.wav,maling_reversed.wav,,,,,0,13,13,13,,,m,1.6371927500003949,False Alarm,1.4482213401659418,1133445,001,2025-11-22_15-56-50,
present,0.7,latter_compressed.wav,latter,babble_41.wav,fjollet_reversed.wav,gidsel_reversed.wav,,,,,0,14,14,14,,,z,0.4323170419993403,Miss,0.9383113112525199,1133445,001,2025-11-22_15-56-50,
present,0.7,museum_compressed.wav,museum,babble_42.wav,dollar_reversed.wav,heldig_reversed.wav,,,,,0,15,15,15,,,m,0.4639747909968719,Hit,1.436644725097333,1133445,001,2025-11-22_15-56-50,
present,0.2,musik_compressed.wav,musik,babble_28.wav,dæmpet_reversed.wav,hjerte_reversed.wav,,,,,0,16,16,16,,,m,0.43762375000005704,Hit,1.0076294949462234,1133445,001,2025-11-22_15-56-50,
present,0.7,hånlig_compressed.wav,hånlig,babble_20.wav,tortur_reversed.wav,diamant_reversed.wav,,,,,0,17,17,17,,,z,0.36898550000114483,Miss,0.9071583113484352,1133445,001,2025-11-22_15-56-50,
absent,0.1,SILENCE,NA,babble_40.wav,museum_reversed.wav,offer_reversed.wav,,,,,0,18,18,18,,,z,1.8313356660000863,Correct Rejection,0.5047907140405224,1133445,001,2025-11-22_15-56-50,
absent,0.3,SILENCE,NA,babble_67.wav,brænde_reversed.wav,cirkel_reversed.wav,,,,,0,19,19,19,,,z,0.4657327089989849,Correct Rejection,0.5780207632982228,1133445,001,2025-11-22_15-56-50,
present,0.5,taber_compressed.wav,taber,babble_2.wav,dæmpet_reversed.wav,spise_reversed.wav,,,,,0,20,20,20,,,m,0.96859858300013,Hit,0.8323426387718139,1133445,001,2025-11-22_15-56-50,
absent,0.2,SILENCE,NA,babble_7.wav,trofæ_reversed.wav,skade_reversed.wav,,,,,0,21,21,21,,,m,0.7928086660031113,False Alarm,1.0300159888360767,1133445,001,2025-11-22_15-56-50,
absent,0.1,SILENCE,NA,babble_10.wav,ensom_reversed.wav,gave_reversed.wav,,,,,0,22,22,22,,,m,2.145851416997175,False Alarm,1.1002646980422988,1133445,001,2025-11-22_15-56-50,
present,0.6,vandal_compressed.wav,vandal,babble_98.wav,rigdom_reversed.wav,misbrug_reversed.wav,,,,,0,23,23,23,,,z,0.28675591600040207,Miss,1.2418772334573052,1133445,001,2025-11-22_15-56-50,
absent,0.2,SILENCE,NA,babble_32.wav,morder_reversed.wav,boble_reversed.wav,,,,,0,24,24,24,,,m,0.4493200840006466,False Alarm,0.5542143049614139,1133445,001,2025-11-22_15-56-50,
present,0.5,skammel_compressed.wav,skammel,babble_85.wav,rabies_reversed.wav,slagtning_reversed.wav,,,,,0,25,25,25,,,z,0.548517791001359,Miss,1.215854707805641,1133445,001,2025-11-22_15-56-50,
absent,0.4,SILENCE,NA,babble_51.wav,vandfald_reversed.wav,sejre_reversed.wav,,,,,0,26,26,26,,,m,0.35242729099991266,False Alarm,0.6259928594176982,1133445,001,2025-11-22_15-56-50,
absent,0.3,SILENCE,NA,babble_83.wav,hage_reversed.wav,mester_reversed.wav,,,,,0,27,27,27,,,z,0.5235827910000808,Correct Rejection,0.9351583257043544,1133445,001,2025-11-22_15-56-50,
absent,0.5,SILENCE,NA,babble_50.wav,hader_reversed.wav,baby_reversed.wav,,,,,0,28,28,28,,,m,0.28454516700003296,False Alarm,0.5071969284780191,1133445,001,2025-11-22_15-56-50,
present,0.1,skammel_compressed.wav,skammel,babble_27.wav,kage_reversed.wav,skuffe_reversed.wav,,,,,0,29,29,29,,,z,0.7831019159966672,Miss,1.322271459025244,1133445,001,2025-11-22_15-56-50,
present,0.7,kærtegn_compressed.wav,kærtegn,babble_31.wav,kæle_reversed.wav,brutal_reversed.wav,,,,,0,30,30,30,,,z,0.7592199589998927,Miss,0.7012334350238051,1133445,001,2025-11-22_15-56-50,
absent,0.3,SILENCE,NA,babble_80.wav,krise_reversed.wav,genert_reversed.wav,,,,,0,31,31,31,,,z,0.3878867499988701,Correct Rejection,0.7262174283373112,1133445,001,2025-11-22_15-56-50,
absent,0.6,SILENCE,NA,babble_89.wav,varme_reversed.wav,motor_reversed.wav,,,,,0,32,32,32,,,m,1.5401994590029062,False Alarm,1.2437391066469299,1133445,001,2025-11-22_15-56-50,
present,0.5,viden_compressed.wav,viden,babble_73.wav,jubel_reversed.wav,sæde_reversed.wav,,,,,0,33,33,33,,,m,0.36628441600259976,Hit,0.619543742297583,1133445,001,2025-11-22_15-56-50,
absent,0.7,SILENCE,NA,babble_59.wav,motor_reversed.wav,grimme_reversed.wav,,,,,0,34,34,34,,,m,0.2515778749984747,False Alarm,1.4207232042414208,1133445,001,2025-11-22_15-56-50,
present,0.6,fase_compressed.wav,fase,babble_77.wav,genert_reversed.wav,vandfald_reversed.wav,,,,,0,35,35,35,,,z,0.3039621250027267,Miss,0.6204409471001656,1133445,001,2025-11-22_15-56-50,
present,0.3,penge_compressed.wav,penge,babble_49.wav,gave_reversed.wav,skønhed_reversed.wav,,,,,0,36,36,36,,,z,0.26498170900231344,Miss,1.018036065461992,1133445,001,2025-11-22_15-56-50,
present,0.7,enhed_compressed.wav,enhed,babble_63.wav,festlig_reversed.wav,cirkel_reversed.wav,,,,,0,37,37,37,,,m,0.7227546670001175,Hit,0.6922550290164522,1133445,001,2025-11-22_15-56-50,
present,0.6,sygdom_compressed.wav,sygdom,babble_42.wav,utro_reversed.wav,salat_reversed.wav,,,,,0,38,38,38,,,z,1.2565969999996014,Miss,1.1660657191956028,1133445,001,2025-11-22_15-56-50,
present,0.3,vandfald_compressed.wav,vandfald,babble_85.wav,knude_reversed.wav,oprør_reversed.wav,,,,,0,39,39,39,,,m,0.38753916600035154,Hit,0.5215761654176976,1133445,001,2025-11-22_15-56-50,
present,0.3,trofæ_compressed.wav,trofæ,babble_18.wav,lækker_reversed.wav,sandhed_reversed.wav,,,,,0,40,40,40,,,m,0.40265062500111526,Hit,0.7281867560308262,1133445,001,2025-11-22_15-56-50,
absent,0.6,SILENCE,NA,babble_76.wav,patent_reversed.wav,violin_reversed.wav,,,,,0,41,41,41,,,m,1.5557804580021184,False Alarm,0.6516010834600322,1133445,001,2025-11-22_15-56-50,
present,0.1,ydmyg_compressed.wav,ydmyg,babble_72.wav,stjerne_reversed.wav,sollys_reversed.wav,,,,,0,42,42,42,,,m,0.30532254099671263,Hit,1.2648458584405962,1133445,001,2025-11-22_15-56-50,
present,0.3,dollar_compressed.wav,dollar,babble_54.wav,traume_reversed.wav,sexet_reversed.wav,,,,,0,43,43,43,,,m,0.8322755830013193,Hit,0.7178550984582345,1133445,001,2025-11-22_15-56-50,
present,0.2,rådden_compressed.wav,rådden,babble_40.wav,ensom_reversed.wav,nonsens_reversed.wav,,,,,0,44,44,44,,,z,0.24696216599841136,Miss,1.4053024189301377,1133445,001,2025-11-22_15-56-50,
absent,0.2,SILENCE,NA,babble_36.wav,natur_reversed.wav,museum_reversed.wav,,,,,0,45,45,45,,,z,0.9213660419991356,Correct Rejection,1.4681597690191621,1133445,001,2025-11-22_15-56-50,
present,0.6,taber_compressed.wav,taber,babble_40.wav,pervers_reversed.wav,fase_reversed.wav,,,,,0,46,46,46,,,z,0.8126368750017718,Miss,0.935198650487806,1133445,001,2025-11-22_15-56-50,
present,0.5,grimme_compressed.wav,grimme,babble_64.wav,ørken_reversed.wav,redskab_reversed.wav,,,,,0,47,47,47,,,m,1.1243122499981837,Hit,0.8450027056418645,1133445,001,2025-11-22_15-56-50,
present,0.7,pervers_compressed.wav,pervers,babble_24.wav,væmmes_reversed.wav,sejre_reversed.wav,,,,,0,48,48,48,,,z,0.574492415998975,Miss,0.5724885610356033,1133445,001,2025-11-22_15-56-50,
present,0.6,kærtegn_compressed.wav,kærtegn,babble_85.wav,albue_reversed.wav,pude_reversed.wav,,,,,0,49,49,49,,,m,0.2213093749996915,Hit,0.874903268984367,1133445,001,2025-11-22_15-56-50,
present,0.3,sandhed_compressed.wav,sandhed,babble_45.wav,lærer_reversed.wav,oprørt_reversed.wav,,,,,0,50,50,50,,,m,0.3252327090012841,Hit,1.0778982801139962,1133445,001,2025-11-22_15-56-50,
absent,0.1,SILENCE,NA,babble_42.wav,plakat_reversed.wav,gratis_reversed.wav,,,,,0,51,51,51,,,z,0.4806953750012326,Correct Rejection,0.9932093807597596,1133445,001,2025-11-22_15-56-50,
absent,0.1,SILENCE,NA,babble_47.wav,baby_reversed.wav,oprør_reversed.wav,,,,,0,52,52,52,,,m,0.2730677090003155,False Alarm,1.3995997406522274,1133445,001,2025-11-22_15-56-50,
absent,0.2,SILENCE,NA,babble_33.wav,lækker_reversed.wav,trofæ_reversed.wav,,,,,0,53,53,53,,,z,0.2214107090003381,Correct Rejection,1.3927425416751744,1133445,001,2025-11-22_15-56-50,
present,0.6,fjendtlig_compressed.wav,fjendtlig,babble_36.wav,oprør_reversed.wav,giftig_reversed.wav,,,,,0,54,54,54,,,z,0.26294120799866505,Miss,1.45859072309677,1133445,001,2025-11-22_15-56-50,
absent,0.4,SILENCE,NA,babble_26.wav,ankel_reversed.wav,maling_reversed.wav,,,,,0,55,55,55,,,z,0.5046342500027095,Correct Rejection,0.6306913546969173,1133445,001,2025-11-22_15-56-50,
present,0.3,slagtning_compressed.wav,slagtning,babble_18.wav,glæde_reversed.wav,bombe_reversed.wav,,,,,0,56,56,56,,,z,0.3005840830010129,Miss,1.4028804439888432,1133445,001,2025-11-22_15-56-50,
absent,0.4,SILENCE,NA,babble_93.wav,konkurs_reversed.wav,vindue_reversed.wav,,,,,0,57,57,57,,,z,0.5080179159995168,Correct Rejection,1.3862231070351856,1133445,001,2025-11-22_15-56-50,
present,0.2,enhed_compressed.wav,enhed,babble_25.wav,sindssyg_reversed.wav,knude_reversed.wav,,,,,0,58,58,58,,,z,0.6723392080020858,Miss,1.250340150184955,1133445,001,2025-11-22_15-56-50,
present,0.1,skyldig_compressed.wav,skyldig,babble_14.wav,krise_reversed.wav,skade_reversed.wav,,,,,0,59,59,59,,,z,1.1050528330015368,Miss,1.4338538489655774,1133445,001,2025-11-22_15-56-50,
present,0.2,hjerte_compressed.wav,hjerte,babble_88.wav,skønhed_reversed.wav,dæmon_reversed.wav,,,,,0,60,60,60,,,m,0.2870687079994241,Hit,0.7399456570521646,1133445,001,2025-11-22_15-56-50,
present,0.5,sejre_compressed.wav,sejre,babble_61.wav,konkurs_reversed.wav,fjollet_reversed.wav,,,,,0,61,61,61,,,z,0.2007977920002304,Miss,0.8088971446549261,1133445,001,2025-11-22_15-56-50,
absent,0.3,SILENCE,NA,babble_4.wav,utro_reversed.wav,nøgle_reversed.wav,,,,,0,62,62,62,,,z,0.8898164999991423,Correct Rejection,0.8167123533877386,1133445,001,2025-11-22_15-56-50,
absent,0.4,SILENCE,NA,babble_61.wav,gade_reversed.wav,offer_reversed.wav,,,,,0,63,63,63,,,m,1.1025963749998482,False Alarm,0.5327480889291796,1133445,001,2025-11-22_15-56-50,
present,0.2,bifald_compressed.wav,bifald,babble_51.wav,varme_reversed.wav,dollar_reversed.wav,,,,,0,64,64,64,,,z,0.6049696670015692,Miss,1.2047357914196115,1133445,001,2025-11-22_15-56-50,
absent,0.4,SILENCE,NA,babble_94.wav,sollys_reversed.wav,plakat_reversed.wav,,,,,0,65,65,65,,,m,0.5497139580002113,False Alarm,0.6157921825794356,1133445,001,2025-11-22_15-56-50,
present,0.4,tumor_compressed.wav,tumor,babble_24.wav,pude_reversed.wav,kande_reversed.wav,,,,,0,66,66,66,,,z,1.1579045830003452,Miss,0.8902193895888764,1133445,001,2025-11-22_15-56-50,
absent,0.4,SILENCE,NA,babble_61.wav,vindue_reversed.wav,spise_reversed.wav,,,,,0,67,67,67,,,z,1.0390778330001922,Correct Rejection,1.1271902601006822,1133445,001,2025-11-22_15-56-50,
absent,0.3,SILENCE,NA,babble_92.wav,affald_reversed.wav,statue_reversed.wav,,,,,0,68,68,68,,,m,0.5993226249993313,False Alarm,0.5995759674733405,1133445,001,2025-11-22_15-56-50,
absent,0.3,SILENCE,NA,babble_29.wav,bange_reversed.wav,sandhed_reversed.wav,,,,,0,69,69,69,,,z,0.6641801669975393,Correct Rejection,1.346841194616663,1133445,001,2025-11-22_15-56-50,
absent,0.1,SILENCE,NA,babble_14.wav,viden_reversed.wav,gave_reversed.wav,,,,,0,70,70,70,,,z,0.9227874580028583,Correct Rejection,0.6655229770120755,1133445,001,2025-11-22_15-56-50,
absent,0.5,SILENCE,NA,babble_42.wav,skade_reversed.wav,gaffel_reversed.wav,,,,,0,71,71,71,,,z,0.5374102079986187,Correct Rejection,1.4272292405179643,1133445,001,2025-11-22_15-56-50,
absent,0.1,SILENCE,NA,babble_73.wav,ensom_reversed.wav,dollar_reversed.wav,,,,,0,72,72,72,,,z,0.8931586250000692,Correct Rejection,1.3803731720712185,1133445,001,2025-11-22_15-56-50,
absent,0.4,SILENCE,NA,babble_46.wav,koldbrand_reversed.wav,måned_reversed.wav,,,,,0,73,73,73,,,z,0.41560016599760274,Correct Rejection,0.8683368417396798,1133445,001,2025-11-22_15-56-50,
absent,0.4,SILENCE,NA,babble_33.wav,frihed_reversed.wav,kæle_reversed.wav,,,,,0,74,74,74,,,z,1.0338654999977734,Correct Rejection,0.6828539544648278,1133445,001,2025-11-22_15-56-50,
absent,0.3,SILENCE,NA,babble_82.wav,skyldig_reversed.wav,mave_reversed.wav,,,,,0,75,75,75,,,m,0.9810696249987814,False Alarm,0.5843130988588099,1133445,001,2025-11-22_15-56-50,
present,0.4,brænde_compressed.wav,brænde,babble_34.wav,metal_reversed.wav,flirte_reversed.wav,,,,,0,76,76,76,,,m,1.2162650840000424,Hit,0.9854248759140536,1133445,001,2025-11-22_15-56-50,
absent,0.6,SILENCE,NA,babble_51.wav,brutal_reversed.wav,røver_reversed.wav,,,,,0,77,77,77,,,m,1.240183292000438,False Alarm,0.5484049144563627,1133445,001,2025-11-22_15-56-50,
present,0.3,sollys_compressed.wav,sollys,babble_38.wav,mave_reversed.wav,sæde_reversed.wav,,,,,0,78,78,78,,,m,0.8084065420007391,Hit,1.105839928246998,1133445,001,2025-11-22_15-56-50,
present,0.7,forfald_compressed.wav,forfald,babble_5.wav,humor_reversed.wav,luksus_reversed.wav,,,,,0,79,79,79,,,z,0.7398952919975272,Miss,1.1389837986654312,1133445,001,2025-11-22_15-56-50,
absent,0.2,SILENCE,NA,babble_18.wav,rigdom_reversed.wav,hader_reversed.wav,,,,,0,80,80,80,,,z,1.0135546659985266,Correct Rejection,0.8383143302782087,1133445,001,2025-11-22_15-56-50,
absent,0.2,SILENCE,NA,babble_97.wav,sejre_reversed.wav,grusom_reversed.wav,,,,,0,81,81,81,,,z,1.0637388750001264,Correct Rejection,1.1126494378550977,1133445,001,2025-11-22_15-56-50,
present,0.3,forpint_compressed.wav,forpint,babble_31.wav,vindue_reversed.wav,kiste_reversed.wav,,,,,0,82,82,82,,,z,0.40581008400113205,Miss,0.9739120081731499,1133445,001,2025-11-22_15-56-50,
absent,0.5,SILENCE,NA,babble_69.wav,illoyal_reversed.wav,vandal_reversed.wav,,,,,0,83,83,83,,,m,2.5457349159987643,False Alarm,0.8933162311378052,1133445,001,2025-11-22_15-56-50,
absent,0.7,SILENCE,NA,babble_64.wav,måned_reversed.wav,stjerne_reversed.wav,,,,,0,84,84,84,,,z,3.11803399999917,Correct Rejection,0.61526635773519,1133445,001,2025-11-22_15-56-50,
present,0.6,engel_compressed.wav,engel,babble_12.wav,misbrug_reversed.wav,pude_reversed.wav,,,,,0,85,85,85,,,z,0.7716688750006142,Miss,0.9807389346805897,1133445,001,2025-11-22_15-56-50,
absent,0.3,SILENCE,NA,babble_90.wav,væmmes_reversed.wav,offer_reversed.wav,,,,,0,86,86,86,,,z,0.6327260840007511,Correct Rejection,0.6263872714722148,1133445,001,2025-11-22_15-56-50,
absent,0.1,SILENCE,NA,babble_57.wav,genert_reversed.wav,sejre_reversed.wav,,,,,0,87,87,87,,,z,0.593794041997171,Correct Rejection,0.5762765541172475,1133445,001,2025-11-22_15-56-50,
present,0.5,dollar_compressed.wav,dollar,babble_5.wav,pjece_reversed.wav,oprør_reversed.wav,,,,,0,88,88,88,,,z,0.3891897499997867,Miss,1.3920663298360296,1133445,001,2025-11-22_15-56-50,
present,0.7,bifald_compressed.wav,bifald,babble_74.wav,nøgle_reversed.wav,respekt_reversed.wav,,,,,0,89,89,89,,,z,0.6345970000002126,Miss,1.4549223743954423,1133445,001,2025-11-22_15-56-50,
absent,0.6,SILENCE,NA,babble_52.wav,oprørt_reversed.wav,spænding_reversed.wav,,,,,0,90,90,90,,,m,1.9678196249988105,False Alarm,1.1935743770846234,1133445,001,2025-11-22_15-56-50,
absent,0.4,SILENCE,NA,babble_35.wav,ønske_reversed.wav,frihed_reversed.wav,,,,,0,91,91,91,,,z,0.7593875000020489,Correct Rejection,0.9825518880712697,1133445,001,2025-11-22_15-56-50,
present,0.1,trofæ_compressed.wav,trofæ,babble_82.wav,papir_reversed.wav,bifald_reversed.wav,,,,,0,92,92,92,,,m,0.27485499999966123,Hit,0.7624440991264971,1133445,001,2025-11-22_15-56-50,
present,0.2,fængsel_compressed.wav,fængsel,babble_49.wav,knude_reversed.wav,søsyg_reversed.wav,,,,,0,93,93,93,,,m,1.0186177079995105,Hit,1.3521490829062073,1133445,001,2025-11-22_15-56-50,
absent,0.2,SILENCE,NA,babble_95.wav,putte_reversed.wav,ankel_reversed.wav,,,,,0,94,94,94,,,z,0.7279714169999352,Correct Rejection,1.2170635221004067,1133445,001,2025-11-22_15-56-50,
present,0.2,mave_compressed.wav,mave,babble_84.wav,stjerne_reversed.wav,passion_reversed.wav,,,,,0,95,95,95,,,m,1.4908857919981529,Hit,0.5767935155745799,1133445,001,2025-11-22_15-56-50,
absent,0.7,SILENCE,NA,babble_92.wav,vandal_reversed.wav,slagtning_reversed.wav,,,,,0,96,96,96,,,z,0.4695135419970029,Correct Rejection,0.8153731470877285,1133445,001,2025-11-22_15-56-50,
absent,0.3,SILENCE,NA,babble_13.wav,nøgle_reversed.wav,frihed_reversed.wav,,,,,0,97,97,97,,,m,0.9031006250006612,False Alarm,0.53398208156063,1133445,001,2025-11-22_15-56-50,
present,0.3,rådden_compressed.wav,rådden,babble_61.wav,rædsel_reversed.wav,tilfreds_reversed.wav,,,,,0,98,98,98,,,z,0.43296220900083426,Miss,0.9285112686866778,1133445,001,2025-11-22_15-56-50,
present,0.6,voldtægt_compressed.wav,voldtægt,babble_73.wav,rabies_reversed.wav,pude_reversed.wav,,,,,0,99,99,99,,,m,0.30836570800238405,Hit,1.3024431200842734,1133445,001,2025-11-22_15-56-50,
absent,0.1,SILENCE,NA,babble_50.wav,engel_reversed.wav,hånlig_reversed.wav,,,,,0,100,100,100,,,z,0.8696344999989378,Correct Rejection,0.8184755613481858,1133445,001,2025-11-22_15-56-50,
absent,0.4,SILENCE,NA,babble_44.wav,cirkel_reversed.wav,fremskridt_reversed.wav,,,,,0,101,101,101,,,z,1.1888860830003978,Correct Rejection,0.5076630884747156,1133445,001,2025-11-22_15-56-50,
absent,0.7,SILENCE,NA,babble_84.wav,fjendtlig_reversed.wav,fase_reversed.wav,,,,,0,102,102,102,,,z,1.3594685419993766,Correct Rejection,1.2034192555279106,1133445,001,2025-11-22_15-56-50,
present,0.2,modgang_compressed.wav,modgang,babble_96.wav,voldtægt_reversed.wav,rigdom_reversed.wav,,,,,0,103,103,103,,,m,0.8590021250020072,Hit,1.0902102531771352,1133445,001,2025-11-22_15-56-50,
absent,0.4,SILENCE,NA,babble_63.wav,nedbrud_reversed.wav,spænding_reversed.wav,,,,,0,104,104,104,,,z,1.2017077090022212,Correct Rejection,0.6570209194789174,1133445,001,2025-11-22_15-56-50,
present,0.4,udskud_compressed.wav,udskud,babble_87.wav,bombe_reversed.wav,knude_reversed.wav,,,,,0,105,105,105,,,m,0.7106289170005766,Hit,0.6244481903091335,1133445,001,2025-11-22_15-56-50,
absent,0.5,SILENCE,NA,babble_11.wav,motor_reversed.wav,bifald_reversed.wav,,,,,0,106,106,106,,,m,0.961625333999109,False Alarm,1.2460820093171843,1133445,001,2025-11-22_15-56-50,
absent,0.6,SILENCE,NA,babble_29.wav,væmmes_reversed.wav,ørken_reversed.wav,,,,,0,107,107,107,,,z,1.044466540999565,Correct Rejection,0.6339517185889558,1133445,001,2025-11-22_15-56-50,
present,0.5,koldbrand_compressed.wav,koldbrand,babble_10.wav,kontor_reversed.wav,mave_reversed.wav,,,,,0,108,108,108,,,z,0.4237066249988857,Miss,1.0494430550261449,1133445,001,2025-11-22_15-56-50,
absent,0.5,SILENCE,NA,babble_28.wav,succes_reversed.wav,illoyal_reversed.wav,,,,,0,109,109,109,,,z,0.34828120899692294,Correct Rejection,0.7542457843493877,1133445,001,2025-11-22_15-56-50,
absent,0.3,SILENCE,NA,babble_39.wav,fiasko_reversed.wav,natur_reversed.wav,,,,,0,110,110,110,,,m,0.3042578330023389,False Alarm,1.1633013582356546,1133445,001,2025-11-22_15-56-50,
present,0.7,oprørt_compressed.wav,oprørt,babble_50.wav,metal_reversed.wav,knude_reversed.wav,,,,,0,111,111,111,,,m,0.8737785419980355,Hit,0.7983880900909225,1133445,001,2025-11-22_15-56-50,
absent,0.5,SILENCE,NA,babble_80.wav,jubel_reversed.wav,traume_reversed.wav,,,,,0,112,112,112,,,z,0.30898558300032164,Correct Rejection,0.703130392566269,1133445,001,2025-11-22_15-56-50,
absent,0.5,SILENCE,NA,babble_98.wav,himmel_reversed.wav,statue_reversed.wav,,,,,0,113,113,113,,,z,0.6037868750026973,Correct Rejection,0.7632192643097182,1133445,001,2025-11-22_15-56-50,
present,0.6,museum_compressed.wav,museum,babble_80.wav,borddug_reversed.wav,pude_reversed.wav,,,,,0,114,114,114,,,m,0.23690370799886296,Hit,1.1111356139891368,1133445,001,2025-11-22_15-56-50,
present,0.4,museum_compressed.wav,museum,babble_9.wav,luksus_reversed.wav,genert_reversed.wav,,,,,0,115,115,115,,,m,0.25521274999846355,Hit,0.9861055219391003,1133445,001,2025-11-22_15-56-50,
present,0.4,morder_compressed.wav,morder,babble_41.wav,sæde_reversed.wav,utro_reversed.wav,,,,,0,116,116,116,,,m,1.6316621250007302,Hit,0.8679725909969895,1133445,001,2025-11-22_15-56-50,
present,0.2,sejre_compressed.wav,sejre,babble_20.wav,taber_reversed.wav,illoyal_reversed.wav,,,,,0,117,117,117,,,m,0.5183766250011104,Hit,1.0562867391724795,1133445,001,2025-11-22_15-56-50,
absent,0.5,SILENCE,NA,babble_13.wav,forpint_reversed.wav,heldig_reversed.wav,,,,,0,118,118,118,,,z,0.4954362919997948,Correct Rejection,0.713272064964413,1133445,001,2025-11-22_15-56-50,
absent,0.7,SILENCE,NA,babble_60.wav,talent_reversed.wav,venlig_reversed.wav,,,,,0,119,119,119,,,z,0.40147404100207496,Correct Rejection,0.7542159575182439,1133445,001,2025-11-22_15-56-50,
present,0.7,borddug_compressed.wav,borddug,babble_95.wav,skuffe_reversed.wav,nonne_reversed.wav,,,,,0,120,120,120,,,m,1.9982694579994131,Hit,0.5965273177084673,1133445,001,2025-11-22_15-56-50,
present,0.4,kysse_compressed.wav,kysse,babble_83.wav,tumor_reversed.wav,koldbrand_reversed.wav,,,,,0,121,121,121,,,m,1.0506287919997703,Hit,0.9635666766452998,1133445,001,2025-11-22_15-56-50,
present,0.4,sandhed_compressed.wav,sandhed,babble_28.wav,luksus_reversed.wav,papir_reversed.wav,,,,,0,122,122,122,,,m,0.4003710830002092,Hit,0.8187416195966475,1133445,001,2025-11-22_15-56-50,
present,0.6,sexet_compressed.wav,sexet,babble_10.wav,brænde_reversed.wav,festlig_reversed.wav,,,,,0,123,123,123,,,z,0.3872515420007403,Miss,0.8453244715582655,1133445,001,2025-11-22_15-56-50,
absent,0.7,SILENCE,NA,babble_77.wav,rådden_reversed.wav,fiasko_reversed.wav,,,,,0,124,124,124,,,z,0.5976263749980717,Correct Rejection,0.7301547114533982,1133445,001,2025-11-22_15-56-50,
absent,0.2,SILENCE,NA,babble_1.wav,passion_reversed.wav,sæde_reversed.wav,,,,,0,125,125,125,,,z,0.35588862499935203,Correct Rejection,1.3716904258834441,1133445,001,2025-11-22_15-56-50,
absent,0.2,SILENCE,NA,babble_74.wav,hjerte_reversed.wav,leder_reversed.wav,,,,,0,126,126,126,,,m,0.27491954200013424,False Alarm,1.3951220886347544,1133445,001,2025-11-22_15-56-50,
absent,0.7,SILENCE,NA,babble_84.wav,røver_reversed.wav,rabies_reversed.wav,,,,,0,127,127,127,,,z,1.1211837920018297,Correct Rejection,1.204520422697228,1133445,001,2025-11-22_15-56-50,
present,0.1,rigdom_compressed.wav,rigdom,babble_73.wav,bifald_reversed.wav,fedme_reversed.wav,,,,,0,128,128,128,,,m,0.35110250000070664,Hit,0.7613184512590646,1133445,001,2025-11-22_15-56-50,
absent,0.5,SILENCE,NA,babble_25.wav,vindue_reversed.wav,giftig_reversed.wav,,,,,0,129,129,129,,,z,0.3696817909985839,Correct Rejection,1.3381932161803536,1133445,001,2025-11-22_15-56-50,
absent,0.3,SILENCE,NA,babble_39.wav,genert_reversed.wav,bygning_reversed.wav,,,,,0,130,130,130,,,z,0.5438101250001637,Correct Rejection,1.1606893606027924,1133445,001,2025-11-22_15-56-50,
present,0.1,leder_compressed.wav,leder,babble_61.wav,vindue_reversed.wav,leder_reversed.wav,,,,,0,131,131,131,,,m,0.2979009999980917,Hit,1.0567905550554713,1133445,001,2025-11-22_15-56-50,
absent,0.6,SILENCE,NA,babble_43.wav,sikker_reversed.wav,ketchup_reversed.wav,,,,,0,132,132,132,,,m,0.5449828339988017,False Alarm,0.6712136530446434,1133445,001,2025-11-22_15-56-50,
absent,0.4,SILENCE,NA,babble_27.wav,bifald_reversed.wav,krise_reversed.wav,,,,,0,133,133,133,,,m,0.3229610410016903,False Alarm,0.8100277980194661,1133445,001,2025-11-22_15-56-50,
absent,0.1,SILENCE,NA,babble_34.wav,hader_reversed.wav,stjerne_reversed.wav,,,,,0,134,134,134,,,z,0.6496262910004589,Correct Rejection,1.071662506554353,1133445,001,2025-11-22_15-56-50,
absent,0.3,SILENCE,NA,babble_1.wav,taber_reversed.wav,smerte_reversed.wav,,,,,0,135,135,135,,,z,0.2985110410008929,Correct Rejection,0.9292083700571061,1133445,001,2025-11-22_15-56-50,
absent,0.6,SILENCE,NA,babble_59.wav,rædsel_reversed.wav,affald_reversed.wav,,,,,0,136,136,136,,,z,0.26056420800159685,Correct Rejection,0.7612969860945846,1133445,001,2025-11-22_15-56-50,
present,0.1,taber_compressed.wav,taber,babble_34.wav,boble_reversed.wav,boble_reversed.wav,,,,,0,137,137,137,,,m,0.8170316249997995,Hit,1.059969078468205,1133445,001,2025-11-22_15-56-50,
present,0.7,forpint_compressed.wav,forpint,babble_1.wav,rigdom_reversed.wav,ønske_reversed.wav,,,,,0,138,138,138,,,z,0.8027269160011201,Miss,1.3959616768568124,1133445,001,2025-11-22_15-56-50,
present,0.6,kage_compressed.wav,kage,babble_15.wav,kiste_reversed.wav,himmel_reversed.wav,,,,,0,139,139,139,,,m,1.6111512499992386,Hit,1.451005329833274,1133445,001,2025-11-22_15-56-50,
present,0.7,penge_compressed.wav,penge,babble_89.wav,grusom_reversed.wav,fremskridt_reversed.wav,,,,,0,140,140,140,,,z,0.2812233329968876,Miss,1.2287052634988112,1133445,001,2025-11-22_15-56-50,
present,0.2,oprørt_compressed.wav,oprørt,babble_34.wav,spise_reversed.wav,feber_reversed.wav,,,,,0,141,141,141,,,z,0.6798096669990628,Miss,1.0377067428699953,1133445,001,2025-11-22_15-56-50,
absent,0.6,SILENCE,NA,babble_9.wav,grimme_reversed.wav,feber_reversed.wav,,,,,0,142,142,142,,,z,1.1717141659974004,Correct Rejection,1.0119462769881928,1133445,001,2025-11-22_15-56-50,
present,0.3,slave_compressed.wav,slave,babble_44.wav,sollys_reversed.wav,grimme_reversed.wav,,,,,0,143,143,143,,,m,0.22023079199789208,Hit,1.4090711596285126,1133445,001,2025-11-22_15-56-50,
present,0.3,grusom_compressed.wav,grusom,babble_42.wav,hjerte_reversed.wav,blodig_reversed.wav,,,,,0,144,144,144,,,m,0.2841425000005984,Hit,0.6912213113480651,1133445,001,2025-11-22_15-56-50,
present,0.4,taxa_compressed.wav,taxa,babble_35.wav,offer_reversed.wav,konkurs_reversed.wav,,,,,0,145,145,145,,,m,0.5674870830007421,Hit,0.5589793922365748,1133445,001,2025-11-22_15-56-50,
present,0.5,fedme_compressed.wav,fedme,babble_49.wav,kage_reversed.wav,ønske_reversed.wav,,,,,0,146,146,146,,,z,0.6193083340003795,Miss,0.6163750728436175,1133445,001,2025-11-22_15-56-50,
present,0.1,viden_compressed.wav,viden,babble_58.wav,himlen_reversed.wav,lyse_reversed.wav,,,,,0,147,147,147,,,m,0.7390808749987627,Hit,1.1785621471909011,1133445,001,2025-11-22_15-56-50,
absent,0.1,SILENCE,NA,babble_63.wav,albue_reversed.wav,affald_reversed.wav,,,,,0,148,148,148,,,z,0.3216482919997361,Correct Rejection,1.4765903115360295,1133445,001,2025-11-22_15-56-50,
present,0.7,fremskridt_compressed.wav,fremskridt,babble_78.wav,misbrug_reversed.wav,sejre_reversed.wav,,,,,0,149,149,149,,,m,0.9838527910033008,Hit,1.3621533925262854,1133445,001,2025-11-22_15-56-50,
absent,0.5,SILENCE,NA,babble_23.wav,affald_reversed.wav,diamant_reversed.wav,,,,,0,150,150,150,,,z,0.6359229999980016,Correct Rejection,0.9154737313216276,1133445,001,2025-11-22_15-56-50,
absent,0.5,SILENCE,NA,babble_45.wav,himlen_reversed.wav,kæle_reversed.wav,,,,,0,151,151,151,,,m,0.2144682920006744,False Alarm,0.7382538194257526,1133445,001,2025-11-22_15-56-50,
absent,0.6,SILENCE,NA,babble_9.wav,pude_reversed.wav,søsyg_reversed.wav,,,,,0,152,152,152,,,m,0.32166337500166264,False Alarm,1.0630112361151927,1133445,001,2025-11-22_15-56-50,
present,0.2,ferie_compressed.wav,ferie,babble_43.wav,vinde_reversed.wav,sollys_reversed.wav,,,,,0,153,153,153,,,m,0.3718479169983766,Hit,1.2659993806622039,1133445,001,2025-11-22_15-56-50,
present,0.6,tønde_compressed.wav,tønde,babble_99.wav,poesi_reversed.wav,succes_reversed.wav,,,,,0,154,154,154,,,z,0.523451875000319,Miss,0.5782548808946515,1133445,001,2025-11-22_15-56-50,
present,0.2,lækker_compressed.wav,lækker,babble_52.wav,latter_reversed.wav,drukne_reversed.wav,,,,,0,155,155,155,,,m,2.738578874999803,Hit,1.0326769850891837,1133445,001,2025-11-22_15-56-50,
present,0.1,blodig_compressed.wav,blodig,babble_62.wav,lækker_reversed.wav,drukne_reversed.wav,,,,,0,156,156,156,,,m,0.47048779200122226,Hit,1.2577147635876615,1133445,001,2025-11-22_15-56-50,
absent,0.6,SILENCE,NA,babble_91.wav,nøgle_reversed.wav,sikker_reversed.wav,,,,,0,157,157,157,,,m,0.6630741249973653,False Alarm,1.4214283379522994,1133445,001,2025-11-22_15-56-50,
present,0.5,ønske_compressed.wav,ønske,babble_15.wav,enhed_reversed.wav,taxa_reversed.wav,,,,,0,158,158,158,,,z,0.8655054160008149,Miss,1.2987031567775027,1133445,001,2025-11-22_15-56-50,
present,0.1,kujon_compressed.wav,kujon,babble_47.wav,skade_reversed.wav,kage_reversed.wav,,,,,0,159,159,159,,,m,0.2921944580011768,Hit,0.7535155731990373,1133445,001,2025-11-22_15-56-50,
absent,0.6,SILENCE,NA,babble_92.wav,trofæ_reversed.wav,tumor_reversed.wav,,,,,0,160,160,160,,,m,0.7799072500019975,False Alarm,0.691047069971972,1133445,001,2025-11-22_15-56-50,
present,0.4,banner_compressed.wav,banner,babble_98.wav,trussel_reversed.wav,taber_reversed.wav,,,,,0,161,161,161,,,z,0.6058855000010226,Miss,0.8048476014081944,1133445,001,2025-11-22_15-56-50,
absent,0.6,SILENCE,NA,babble_34.wav,varme_reversed.wav,fase_reversed.wav,,,,,0,162,162,162,,,z,5.079221833002521,Correct Rejection,1.1842525593888718,1133445,001,2025-11-22_15-56-50,
present,0.2,kysse_compressed.wav,kysse,babble_7.wav,cirkel_reversed.wav,gratis_reversed.wav,,,,,0,163,163,163,,,m,0.27333337500022026,Hit,1.2675694292546336,1133445,001,2025-11-22_15-56-50,
absent,0.1,SILENCE,NA,babble_54.wav,offer_reversed.wav,humor_reversed.wav,,,,,0,164,164,164,,,z,1.4609828339998785,Correct Rejection,0.7029485387019841,1133445,001,2025-11-22_15-56-50,
absent,0.1,SILENCE,NA,babble_42.wav,ønske_reversed.wav,maling_reversed.wav,,,,,0,165,165,165,,,z,1.1435995409992756,Correct Rejection,1.3160887357217788,1133445,001,2025-11-22_15-56-50,
present,0.4,rabies_compressed.wav,rabies,babble_14.wav,hage_reversed.wav,forpint_reversed.wav,,,,,0,166,166,166,,,z,1.4239249590027612,Miss,1.261617890167572,1133445,001,2025-11-22_15-56-50,
absent,0.3,SILENCE,NA,babble_38.wav,mave_reversed.wav,vandfald_reversed.wav,,,,,0,167,167,167,,,z,1.3269960420002462,Correct Rejection,0.7027400510863142,1133445,001,2025-11-22_15-56-50,
present,0.4,misbrug_compressed.wav,misbrug,babble_0.wav,himmel_reversed.wav,mester_reversed.wav,,,,,0,168,168,168,,,z,0.8657197920001636,Miss,0.999944554249574,1133445,001,2025-11-22_15-56-50,
present,0.5,grusom_compressed.wav,grusom,babble_75.wav,konge_reversed.wav,rædsel_reversed.wav,,,,,0,169,169,169,,,m,0.2905950419990404,Hit,1.3189537146004815,1133445,001,2025-11-22_15-56-50,
absent,0.4,SILENCE,NA,babble_51.wav,albue_reversed.wav,krise_reversed.wav,,,,,0,170,170,170,,,z,0.5459965000009106,Correct Rejection,0.7169124254708815,1133445,001,2025-11-22_15-56-50,
present,0.3,udskud_compressed.wav,udskud,babble_1.wav,bange_reversed.wav,diamant_reversed.wav,,,,,0,171,171,171,,,m,0.2723350839987688,Hit,1.3680863081349253,1133445,001,2025-11-22_15-56-50,
present,0.7,måned_compressed.wav,måned,babble_23.wav,himmel_reversed.wav,leder_reversed.wav,,,,,0,172,172,172,,,z,0.45679008400111343,Miss,0.8992926541943502,1133445,001,2025-11-22_15-56-50,
absent,0.2,SILENCE,NA,babble_86.wav,marked_reversed.wav,salat_reversed.wav,,,,,0,173,173,173,,,z,0.7151195420010481,Correct Rejection,0.7502261898000717,1133445,001,2025-11-22_15-56-50,
present,0.2,spise_compressed.wav,spise,babble_91.wav,rotte_reversed.wav,diamant_reversed.wav,,,,,0,174,174,174,,,m,0.28534229100114317,Hit,1.4160371620919716,1133445,001,2025-11-22_15-56-50,
absent,0.6,SILENCE,NA,babble_3.wav,lækker_reversed.wav,banner_reversed.wav,,,,,0,175,175,175,,,z,0.3101638340012869,Correct Rejection,1.2946166824360783,1133445,001,2025-11-22_15-56-50,
absent,0.7,SILENCE,NA,babble_94.wav,accept_reversed.wav,passion_reversed.wav,,,,,0,176,176,176,,,z,0.3118470420013182,Correct Rejection,1.1232251095899444,1133445,001,2025-11-22_15-56-50,
absent,0.7,SILENCE,NA,babble_11.wav,affald_reversed.wav,spise_reversed.wav,,,,,0,177,177,177,,,z,0.25146974999734084,Correct Rejection,1.401455184113555,1133445,001,2025-11-22_15-56-50,
present,0.5,rædsel_compressed.wav,rædsel,babble_59.wav,rådden_reversed.wav,gaffel_reversed.wav,,,,,0,178,178,178,,,m,0.891749999998865,Hit,0.8456404323678206,1133445,001,2025-11-22_15-56-50,
absent,0.7,SILENCE,NA,babble_18.wav,krise_reversed.wav,ketchup_reversed.wav,,,,,0,179,179,179,,,z,0.39713333300096565,Correct Rejection,0.7188714345409605,1133445,001,2025-11-22_15-56-50,
present,0.3,beskidt_compressed.wav,beskidt,babble_40.wav,brænde_reversed.wav,avis_reversed.wav,,,,,0,180,180,180,,,z,0.05971391700222739,Miss,1.3069172750633824,1133445,001,2025-11-22_15-56-50,
absent,0.1,SILENCE,NA,babble_80.wav,pude_reversed.wav,borddug_reversed.wav,,,,,0,181,181,181,,,m,0.3593144160004158,False Alarm,1.2797962257295947,1133445,001,2025-11-22_15-56-50,
absent,0.2,SILENCE,NA,babble_5.wav,genstand_reversed.wav,tilfreds_reversed.wav,,,,,0,182,182,182,,,z,0.6783893339998031,Correct Rejection,1.344369762438913,1133445,001,2025-11-22_15-56-50,
present,0.1,maling_compressed.wav,maling,babble_14.wav,traume_reversed.wav,glæde_reversed.wav,,,,,0,183,183,183,,,z,0.37943887499932316,Miss,0.9121662893721468,1133445,001,2025-11-22_15-56-50,
present,0.6,minder_compressed.wav,minder,babble_93.wav,violin_reversed.wav,regnbue_reversed.wav,,,,,0,184,184,184,,,z,0.7453525000018999,Miss,0.772703658464077,1133445,001,2025-11-22_15-56-50,
absent,0.7,SILENCE,NA,babble_24.wav,fedme_reversed.wav,viden_reversed.wav,,,,,0,185,185,185,,,z,4.260888000000705,Correct Rejection,1.0117192591817794,1133445,001,2025-11-22_15-56-50,
absent,0.7,SILENCE,NA,babble_13.wav,røver_reversed.wav,væmmes_reversed.wav,,,,,0,186,186,186,,,z,0.41085008300069603,Correct Rejection,0.7382278952931859,1133445,001,2025-11-22_15-56-50,
present,0.5,sexet_compressed.wav,sexet,babble_37.wav,spænding_reversed.wav,selvmord_reversed.wav,,,,,0,187,187,187,,,m,0.4159302080006455,Hit,1.015307135867598,1133445,001,2025-11-22_15-56-50,
absent,0.2,SILENCE,NA,babble_47.wav,poesi_reversed.wav,oprørt_reversed.wav,,,,,0,188,188,188,,,z,0.8463830000000598,Correct Rejection,0.6602211631342948,1133445,001,2025-11-22_15-56-50,
absent,0.4,SILENCE,NA,babble_25.wav,illoyal_reversed.wav,gidsel_reversed.wav,,,,,0,189,189,189,,,m,0.7433237920013198,False Alarm,1.34007215035964,1133445,001,2025-11-22_15-56-50,
present,0.3,misbrug_compressed.wav,misbrug,babble_43.wav,trussel_reversed.wav,statue_reversed.wav,,,,,0,190,190,190,,,m,0.7627314999990631,Hit,1.138775267069077,1133445,001,2025-11-22_15-56-50,
present,0.7,leder_compressed.wav,leder,babble_90.wav,hjerte_reversed.wav,affald_reversed.wav,,,,,0,191,191,191,,,z,0.3244935830007307,Miss,1.0299688963265516,1133445,001,2025-11-22_15-56-50,
absent,0.5,SILENCE,NA,babble_91.wav,salat_reversed.wav,blodig_reversed.wav,,,,,0,192,192,192,,,z,0.3786264160007704,Correct Rejection,1.1081935911400458,1133445,001,2025-11-22_15-56-50,
absent,0.1,SILENCE,NA,babble_70.wav,dæmpet_reversed.wav,patent_reversed.wav,,,,,0,193,193,193,,,z,0.3962197920009203,Correct Rejection,1.177064118701529,1133445,001,2025-11-22_15-56-50,
absent,0.3,SILENCE,NA,babble_52.wav,genert_reversed.wav,redning_reversed.wav,,,,,0,194,194,194,,,z,0.4588087500014808,Correct Rejection,0.754251351377645,1133445,001,2025-11-22_15-56-50,
present,0.5,kontor_compressed.wav,kontor,babble_4.wav,smerte_reversed.wav,latter_reversed.wav,,,,,0,195,195,195,,,m,0.9100824580018525,Hit,0.6506902192340651,1133445,001,2025-11-22_15-56-50,
present,0.1,hårnål_compressed.wav,hårnål,babble_41.wav,kande_reversed.wav,latter_reversed.wav,,,,,0,196,196,196,,,m,0.40428787500059116,Hit,0.915893734413933,1133445,001,2025-11-22_15-56-50,
present,0.5,venlig_compressed.wav,venlig,babble_86.wav,lærer_reversed.wav,gaffel_reversed.wav,,,,,0,197,197,197,,,z,1.3540273329999764,Miss,1.1645675738316845,1133445,001,2025-11-22_15-56-50,
absent,0.6,SILENCE,NA,babble_17.wav,oprør_reversed.wav,putte_reversed.wav,,,,,0,198,198,198,,,m,1.2256861670030048,False Alarm,1.2656630065227688,1133445,001,2025-11-22_15-56-50,
present,0.1,hjerte_compressed.wav,hjerte,babble_5.wav,nonne_reversed.wav,lyse_reversed.wav,,,,,0,199,199,199,,,m,0.5312699159985641,Hit,0.9943222071927396,1133445,001,2025-11-22_15-56-50,
absent,0.4,SILENCE,NA,babble_70.wav,kærtegn_reversed.wav,kærtegn_reversed.wav,,,,,0,200,200,200,,,m,0.336816541999724,False Alarm,1.3802367180481916,1133445,001,2025-11-22_15-56-50,
present,0.1,misbrug_compressed.wav,misbrug,babble_52.wav,forpint_reversed.wav,bygning_reversed.wav,,,,,0,201,201,201,,,m,0.24630354100008844,Hit,1.1056678268983111,1133445,001,2025-11-22_15-56-50,
present,0.4,sikker_compressed.wav,sikker,babble_73.wav,beskidt_reversed.wav,sollys_reversed.wav,,,,,0,202,202,202,,,m,1.0889853329972539,Hit,1.181779704481773,1133445,001,2025-11-22_15-56-50,
absent,0.7,SILENCE,NA,babble_85.wav,redning_reversed.wav,sollys_reversed.wav,,,,,0,203,203,203,,,m,0.9505112920014653,False Alarm,1.4399868947188441,1133445,001,2025-11-22_15-56-50,
present,0.1,patent_compressed.wav,patent,babble_12.wav,ferie_reversed.wav,blodig_reversed.wav,,,,,0,204,204,204,,,m,1.031339791999926,Hit,1.4023915223973926,1133445,001,2025-11-22_15-56-50,
absent,0.1,SILENCE,NA,babble_56.wav,rigdom_reversed.wav,viden_reversed.wav,,,,,0,205,205,205,,,z,1.0797657090006396,Correct Rejection,0.9756024568124828,1133445,001,2025-11-22_15-56-50,
absent,0.7,SILENCE,NA,babble_33.wav,rigdom_reversed.wav,motor_reversed.wav,,,,,0,206,206,206,,,z,0.7460014579992276,Correct Rejection,1.1580974844000547,1133445,001,2025-11-22_15-56-50,
absent,0.5,SILENCE,NA,babble_10.wav,nonne_reversed.wav,lampe_reversed.wav,,,,,0,207,207,207,,,z,0.4166769999974349,Correct Rejection,0.5004137006455419,1133445,001,2025-11-22_15-56-50,
absent,0.6,SILENCE,NA,babble_81.wav,utro_reversed.wav,smerte_reversed.wav,,,,,0,208,208,208,,,z,0.34204487500028335,Correct Rejection,0.755870846754415,1133445,001,2025-11-22_15-56-50,
present,0.6,tilfreds_compressed.wav,tilfreds,babble_34.wav,bombe_reversed.wav,bange_reversed.wav,,,,,0,209,209,209,,,m,0.2587112500004878,Hit,0.5100414850198611,1133445,001,2025-11-22_15-56-50,
