signal_type,compression_level,prime_file,correct_word,babbling_file,mask1_file,mask2_file,practice.thisRepN,practice.thisTrialN,practice.thisN,practice.thisIndex,main.thisRepN,main.thisTrialN,main.thisN,main.thisIndex,thisRow.t,notes,response_key,rt,trial_outcome,babble_duration,Participant ID,Session,date,
absent,0.7,SILENCE,NA,babble_71.wav,ønske_reversed.wav,pjece_reversed.wav,0,0,0,0,0,-1,-1,0,,,z,2.321926708013052,Correct Rejection,1.1235691951582283,234567,001,2025-11-19_08-25-31,
present,0.5,traume_compressed.wav,traume,babble_73.wav,ankel_reversed.wav,kugle_reversed.wav,0,1,1,1,0,-1,-1,0,,,m,1.2429652079881635,Hit,0.7767656110498562,234567,001,2025-11-19_08-25-31,
present,0.4,latter_compressed.wav,latter,babble_13.wav,rotte_reversed.wav,kage_reversed.wav,0,2,2,2,0,-1,-1,0,,,z,1.2629263749986421,Miss,1.2246381044230965,234567,001,2025-11-19_08-25-31,
present,0.1,lampe_compressed.wav,lampe,babble_81.wav,spise_reversed.wav,forpint_reversed.wav,0,3,3,3,0,-1,-1,0,,,z,1.2101435840013437,Miss,1.4272253381605897,234567,001,2025-11-19_08-25-31,
absent,0.5,SILENCE,NA,babble_53.wav,fængsel_reversed.wav,søsyg_reversed.wav,0,4,4,4,0,-1,-1,0,,,z,0.9900948750146199,Correct Rejection,1.0759457236235894,234567,001,2025-11-19_08-25-31,
present,0.3,skade_compressed.wav,skade,babble_37.wav,hader_reversed.wav,brænde_reversed.wav,0,5,5,5,0,-1,-1,0,,,z,1.1289141250017565,Miss,1.3208339287024013,234567,001,2025-11-19_08-25-31,
present,0.7,trussel_compressed.wav,trussel,babble_66.wav,plakat_reversed.wav,misbrug_reversed.wav,0,6,6,6,0,-1,-1,0,,,z,1.3448750420066062,Miss,0.7372663767635815,234567,001,2025-11-19_08-25-31,
absent,0.4,SILENCE,NA,babble_58.wav,oprør_reversed.wav,nøgle_reversed.wav,0,7,7,7,0,-1,-1,0,,,z,0.9525449579814449,Correct Rejection,1.258693827142749,234567,001,2025-11-19_08-25-31,
absent,0.2,SILENCE,NA,babble_55.wav,boble_reversed.wav,oprørt_reversed.wav,0,8,8,8,0,-1,-1,0,,,z,1.6023112919938285,Correct Rejection,0.5179085119599736,234567,001,2025-11-19_08-25-31,
absent,0.3,SILENCE,NA,babble_23.wav,himlen_reversed.wav,kedel_reversed.wav,0,9,9,9,0,-1,-1,0,,,z,0.902422832994489,Correct Rejection,1.3931973891979788,234567,001,2025-11-19_08-25-31,
absent,0.6,SILENCE,NA,babble_51.wav,genert_reversed.wav,bange_reversed.wav,0,10,10,10,0,-1,-1,0,,,z,1.762837208021665,Correct Rejection,0.8836843491445457,234567,001,2025-11-19_08-25-31,
absent,0.1,SILENCE,NA,babble_66.wav,leder_reversed.wav,tortur_reversed.wav,0,11,11,11,0,-1,-1,0,,,z,2.0059065830137115,Correct Rejection,1.3328094750091597,234567,001,2025-11-19_08-25-31,
present,0.2,intim_compressed.wav,intim,babble_35.wav,plakat_reversed.wav,trofæ_reversed.wav,0,12,12,12,0,-1,-1,0,,,m,2.3054330830054823,Hit,0.768676471963097,234567,001,2025-11-19_08-25-31,
present,0.6,spænding_compressed.wav,spænding,babble_0.wav,konkurs_reversed.wav,frygtsom_reversed.wav,0,13,13,13,0,-1,-1,0,,,z,0.8484714169753715,Miss,0.8715864517080951,234567,001,2025-11-19_08-25-31,
present,0.1,lyse_compressed.wav,lyse,babble_77.wav,lærer_reversed.wav,varme_reversed.wav,,,,,0,0,0,0,,,z,1.436150625027949,Miss,1.2892821030350634,234567,001,2025-11-19_08-25-31,
present,0.4,natur_compressed.wav,natur,babble_75.wav,selvmord_reversed.wav,fedme_reversed.wav,,,,,0,1,1,1,,,m,0.79764362500282,Hit,0.8814213029296627,234567,001,2025-11-19_08-25-31,
present,0.5,pude_compressed.wav,pude,babble_39.wav,konkurs_reversed.wav,utro_reversed.wav,,,,,0,2,2,2,,,z,0.8452720000059344,Miss,0.5834378965173822,234567,001,2025-11-19_08-25-31,
absent,0.5,SILENCE,NA,babble_76.wav,festlig_reversed.wav,konkurs_reversed.wav,,,,,0,3,3,3,,,z,0.910522916004993,Correct Rejection,0.5295602720827761,234567,001,2025-11-19_08-25-31,
absent,0.6,SILENCE,NA,babble_26.wav,hjerte_reversed.wav,gidsel_reversed.wav,,,,,0,4,4,4,,,z,2.498559416999342,Correct Rejection,0.9680133701370361,234567,001,2025-11-19_08-25-31,
absent,0.2,SILENCE,NA,babble_51.wav,frygtsom_reversed.wav,plakat_reversed.wav,,,,,0,5,5,5,,,z,0.7786672500078566,Correct Rejection,1.44827665021245,234567,001,2025-11-19_08-25-31,
absent,0.2,SILENCE,NA,babble_14.wav,lyse_reversed.wav,diamant_reversed.wav,,,,,0,6,6,6,,,z,2.950784249987919,Correct Rejection,1.3196298376112718,234567,001,2025-11-19_08-25-31,
absent,0.3,SILENCE,NA,babble_31.wav,rådden_reversed.wav,bygning_reversed.wav,,,,,0,7,7,7,,,z,1.1576837500033434,Correct Rejection,1.0177016067348297,234567,001,2025-11-19_08-25-31,
present,0.3,bygning_compressed.wav,bygning,babble_63.wav,knude_reversed.wav,morder_reversed.wav,,,,,0,8,8,8,,,z,3.2829438330081757,Miss,0.9962868884323731,234567,001,2025-11-19_08-25-31,
absent,0.7,SILENCE,NA,babble_91.wav,blomstre_reversed.wav,drukne_reversed.wav,,,,,0,9,9,9,,,m,3.0649699160130695,False Alarm,1.3490554765883722,234567,001,2025-11-19_08-25-31,
present,0.6,salat_compressed.wav,salat,babble_18.wav,hader_reversed.wav,voldtægt_reversed.wav,,,,,0,10,10,10,,,m,1.2937471669865772,Hit,1.1662862114049135,234567,001,2025-11-19_08-25-31,
absent,0.7,SILENCE,NA,babble_1.wav,heldig_reversed.wav,hjerte_reversed.wav,,,,,0,11,11,11,,,z,1.4450728329829872,Correct Rejection,1.3894751447016809,234567,001,2025-11-19_08-25-31,
present,0.3,banner_compressed.wav,banner,babble_42.wav,ugle_reversed.wav,stjerne_reversed.wav,,,,,0,12,12,12,,,m,2.068335500021931,Hit,1.115084813660517,234567,001,2025-11-19_08-25-31,
present,0.3,syndig_compressed.wav,syndig,babble_64.wav,bifald_reversed.wav,accept_reversed.wav,,,,,0,13,13,13,,,z,0.5507429160061292,Miss,1.4898143219967102,234567,001,2025-11-19_08-25-31,
present,0.1,nonne_compressed.wav,nonne,babble_99.wav,skammel_reversed.wav,lækker_reversed.wav,,,,,0,14,14,14,,,m,0.6099246669909917,Hit,1.4265643117049533,234567,001,2025-11-19_08-25-31,
present,0.6,skuffe_compressed.wav,skuffe,babble_30.wav,rådden_reversed.wav,offer_reversed.wav,,,,,0,15,15,15,,,z,0.8196331249782816,Miss,1.2247881529738796,234567,001,2025-11-19_08-25-31,
absent,0.7,SILENCE,NA,babble_52.wav,rådden_reversed.wav,respekt_reversed.wav,,,,,0,16,16,16,,,z,1.3893385000119451,Correct Rejection,1.402610732530082,234567,001,2025-11-19_08-25-31,
present,0.2,illoyal_compressed.wav,illoyal,babble_7.wav,metal_reversed.wav,offer_reversed.wav,,,,,0,17,17,17,,,m,1.081931958993664,Hit,0.9963493042826758,234567,001,2025-11-19_08-25-31,
absent,0.1,SILENCE,NA,babble_45.wav,ugle_reversed.wav,metal_reversed.wav,,,,,0,18,18,18,,,z,5.532980083982693,Correct Rejection,1.0932032050332228,234567,001,2025-11-19_08-25-31,
present,0.2,oprørt_compressed.wav,oprørt,babble_9.wav,nøgle_reversed.wav,forpint_reversed.wav,,,,,0,19,19,19,,,z,1.4623227909905836,Miss,0.555125137066105,234567,001,2025-11-19_08-25-31,
absent,0.1,SILENCE,NA,babble_9.wav,enhed_reversed.wav,mave_reversed.wav,,,,,0,20,20,20,,,z,0.5765227090159897,Correct Rejection,1.0462543891612983,234567,001,2025-11-19_08-25-31,
absent,0.4,SILENCE,NA,babble_51.wav,slagtning_reversed.wav,ensom_reversed.wav,,,,,0,21,21,21,,,z,2.001797083998099,Correct Rejection,1.303226955463181,234567,001,2025-11-19_08-25-31,
present,0.7,ankel_compressed.wav,ankel,babble_10.wav,taxa_reversed.wav,himmel_reversed.wav,,,,,0,22,22,22,,,z,0.8988326249818783,Miss,1.457321181081928,234567,001,2025-11-19_08-25-31,
absent,0.6,SILENCE,NA,babble_18.wav,rabies_reversed.wav,vandfald_reversed.wav,,,,,0,23,23,23,,,z,0.9968014999758452,Correct Rejection,0.6947950884521917,234567,001,2025-11-19_08-25-31,
present,0.5,forpint_compressed.wav,forpint,babble_7.wav,bygning_reversed.wav,banner_reversed.wav,,,,,0,24,24,24,,,z,0.9616905000002589,Miss,0.9737284092241235,234567,001,2025-11-19_08-25-31,
present,0.3,koldbrand_compressed.wav,koldbrand,babble_15.wav,albue_reversed.wav,boble_reversed.wav,,,,,0,25,25,25,,,z,0.8702356670110021,Miss,1.1197837797252381,234567,001,2025-11-19_08-25-31,
absent,0.3,SILENCE,NA,babble_54.wav,grusom_reversed.wav,oprørt_reversed.wav,,,,,0,26,26,26,,,z,0.9129353330063168,Correct Rejection,1.2777008293991237,234567,001,2025-11-19_08-25-31,
absent,0.6,SILENCE,NA,babble_60.wav,knude_reversed.wav,skade_reversed.wav,,,,,0,27,27,27,,,m,1.260521084011998,False Alarm,0.6876710265521201,234567,001,2025-11-19_08-25-31,
present,0.1,ønske_compressed.wav,ønske,babble_60.wav,gade_reversed.wav,skønhed_reversed.wav,,,,,0,28,28,28,,,z,0.7898385419975966,Miss,1.3114191728090665,234567,001,2025-11-19_08-25-31,
present,0.2,modgang_compressed.wav,modgang,babble_23.wav,skyldig_reversed.wav,forkert_reversed.wav,,,,,0,29,29,29,,,z,0.6988413330109324,Miss,0.6584381600604313,234567,001,2025-11-19_08-25-31,
present,0.6,spise_compressed.wav,spise,babble_3.wav,smerte_reversed.wav,ensom_reversed.wav,,,,,0,30,30,30,,,z,0.6317987079964951,Miss,0.7264318586818591,234567,001,2025-11-19_08-25-31,
present,0.5,kysse_compressed.wav,kysse,babble_8.wav,opstemt_reversed.wav,frihed_reversed.wav,,,,,0,31,31,31,,,z,0.6342397500120569,Miss,0.6979093680624695,234567,001,2025-11-19_08-25-31,
absent,0.2,SILENCE,NA,babble_49.wav,smerte_reversed.wav,vindue_reversed.wav,,,,,0,32,32,32,,,z,0.7320820419990923,Correct Rejection,0.963365677878123,234567,001,2025-11-19_08-25-31,
absent,0.2,SILENCE,NA,babble_41.wav,tortur_reversed.wav,fedme_reversed.wav,,,,,0,33,33,33,,,z,0.7887889159901533,Correct Rejection,0.7996334994614869,234567,001,2025-11-19_08-25-31,
absent,0.7,SILENCE,NA,babble_85.wav,dollar_reversed.wav,regnbue_reversed.wav,,,,,0,34,34,34,,,z,2.449472624983173,Correct Rejection,1.081709034923972,234567,001,2025-11-19_08-25-31,
present,0.4,salat_compressed.wav,salat,babble_40.wav,blomstre_reversed.wav,blomstre_reversed.wav,,,,,0,35,35,35,,,m,2.0381007920077536,Hit,0.631916781489954,234567,001,2025-11-19_08-25-31,
absent,0.1,SILENCE,NA,babble_91.wav,sindssyg_reversed.wav,rotte_reversed.wav,,,,,0,36,36,36,,,z,1.3795594580005854,Correct Rejection,1.0805679324855957,234567,001,2025-11-19_08-25-31,
present,0.3,lyse_compressed.wav,lyse,babble_27.wav,maling_reversed.wav,kugle_reversed.wav,,,,,0,37,37,37,,,m,0.5371044579951558,Hit,1.2146963243688629,234567,001,2025-11-19_08-25-31,
present,0.2,heldig_compressed.wav,heldig,babble_86.wav,glæde_reversed.wav,sæde_reversed.wav,,,,,0,38,38,38,,,z,0.5316691659973003,Miss,0.7602075630124834,234567,001,2025-11-19_08-25-31,
present,0.5,dollar_compressed.wav,dollar,babble_29.wav,heldig_reversed.wav,plakat_reversed.wav,,,,,0,39,39,39,,,z,0.4429494589858223,Miss,1.3237084913719088,234567,001,2025-11-19_08-25-31,
present,0.2,finger_compressed.wav,finger,babble_85.wav,nedbrud_reversed.wav,sejre_reversed.wav,,,,,0,40,40,40,,,m,2.074046207999345,Hit,0.7245127759349623,234567,001,2025-11-19_08-25-31,
present,0.4,oprørt_compressed.wav,oprørt,babble_75.wav,glæde_reversed.wav,glæde_reversed.wav,,,,,0,41,41,41,,,z,0.49272337500588037,Miss,0.5894062516037697,234567,001,2025-11-19_08-25-31,
present,0.2,affald_compressed.wav,affald,babble_9.wav,smerte_reversed.wav,finger_reversed.wav,,,,,0,42,42,42,,,z,0.7296559999813326,Miss,1.4101539766758242,234567,001,2025-11-19_08-25-31,
present,0.3,redskab_compressed.wav,redskab,babble_72.wav,poesi_reversed.wav,forfald_reversed.wav,,,,,0,43,43,43,,,z,0.8395044170028996,Miss,1.4532297918901542,234567,001,2025-11-19_08-25-31,
present,0.6,dæmon_compressed.wav,dæmon,babble_72.wav,nonsens_reversed.wav,himlen_reversed.wav,,,,,0,44,44,44,,,z,0.9119296669960022,Miss,0.5936924918459772,234567,001,2025-11-19_08-25-31,
present,0.4,sindssyg_compressed.wav,sindssyg,babble_70.wav,genstand_reversed.wav,violin_reversed.wav,,,,,0,45,45,45,,,m,0.6158626249816734,Hit,1.4551267277147115,234567,001,2025-11-19_08-25-31,
present,0.3,sæde_compressed.wav,sæde,babble_70.wav,borddug_reversed.wav,grimme_reversed.wav,,,,,0,46,46,46,,,z,1.357014082983369,Miss,1.1891200606643368,234567,001,2025-11-19_08-25-31,
absent,0.4,SILENCE,NA,babble_74.wav,borddug_reversed.wav,gidsel_reversed.wav,,,,,0,47,47,47,,,z,1.580111457995372,Correct Rejection,1.0071808618360678,234567,001,2025-11-19_08-25-31,
present,0.6,oprørt_compressed.wav,oprørt,babble_57.wav,genstand_reversed.wav,konkurs_reversed.wav,,,,,0,48,48,48,,,z,1.058783874992514,Miss,1.0718072245132029,234567,001,2025-11-19_08-25-31,
absent,0.6,SILENCE,NA,babble_4.wav,salat_reversed.wav,hader_reversed.wav,,,,,0,49,49,49,,,z,1.101308915996924,Correct Rejection,1.440477041968315,234567,001,2025-11-19_08-25-31,
absent,0.6,SILENCE,NA,babble_25.wav,latter_reversed.wav,grusom_reversed.wav,,,,,0,50,50,50,,,z,0.8105036669876426,Correct Rejection,0.7950523718293442,234567,001,2025-11-19_08-25-31,
absent,0.7,SILENCE,NA,babble_41.wav,taber_reversed.wav,kontor_reversed.wav,,,,,0,51,51,51,,,m,2.2313167079992127,False Alarm,1.4881334399162172,234567,001,2025-11-19_08-25-31,
absent,0.6,SILENCE,NA,babble_82.wav,nøgle_reversed.wav,knude_reversed.wav,,,,,0,52,52,52,,,z,1.136454457999207,Correct Rejection,1.117035025711313,234567,001,2025-11-19_08-25-31,
present,0.2,vandfald_compressed.wav,vandfald,babble_46.wav,genert_reversed.wav,jubel_reversed.wav,,,,,0,53,53,53,,,m,0.6383236250258051,Hit,0.6825130373077409,234567,001,2025-11-19_08-25-31,
present,0.1,jubel_compressed.wav,jubel,babble_26.wav,krise_reversed.wav,nonsens_reversed.wav,,,,,0,54,54,54,,,z,1.4693487500189804,Miss,1.237574693630954,234567,001,2025-11-19_08-25-31,
absent,0.3,SILENCE,NA,babble_22.wav,sejre_reversed.wav,latter_reversed.wav,,,,,0,55,55,55,,,z,1.2035603749973234,Correct Rejection,1.11747717278543,234567,001,2025-11-19_08-25-31,
absent,0.6,SILENCE,NA,babble_30.wav,forfald_reversed.wav,giftig_reversed.wav,,,,,0,56,56,56,,,z,1.3953409579989966,Correct Rejection,0.5208448331820779,234567,001,2025-11-19_08-25-31,
absent,0.5,SILENCE,NA,babble_7.wav,gratis_reversed.wav,hader_reversed.wav,,,,,0,57,57,57,,,z,0.8949434999958612,Correct Rejection,0.8457669574743057,234567,001,2025-11-19_08-25-31,
absent,0.5,SILENCE,NA,babble_17.wav,genert_reversed.wav,ørken_reversed.wav,,,,,0,58,58,58,,,z,1.1548286660108715,Correct Rejection,1.2414386265007002,234567,001,2025-11-19_08-25-31,
present,0.7,fase_compressed.wav,fase,babble_69.wav,pude_reversed.wav,motor_reversed.wav,,,,,0,59,59,59,,,m,0.7055482080031652,Hit,1.451000044029966,234567,001,2025-11-19_08-25-31,
absent,0.3,SILENCE,NA,babble_48.wav,sejre_reversed.wav,accept_reversed.wav,,,,,0,60,60,60,,,z,0.6907819999905769,Correct Rejection,0.6112661765845596,234567,001,2025-11-19_08-25-31,
absent,0.4,SILENCE,NA,babble_39.wav,djævel_reversed.wav,kontor_reversed.wav,,,,,0,61,61,61,,,m,1.4056966250063851,False Alarm,1.450567098514179,234567,001,2025-11-19_08-25-31,
present,0.2,vandal_compressed.wav,vandal,babble_97.wav,skønhed_reversed.wav,offer_reversed.wav,,,,,0,62,62,62,,,z,0.761884415987879,Miss,1.3684256769131393,234567,001,2025-11-19_08-25-31,
absent,0.1,SILENCE,NA,babble_11.wav,bange_reversed.wav,natur_reversed.wav,,,,,0,63,63,63,,,z,1.279076791019179,Correct Rejection,0.8370612463626084,234567,001,2025-11-19_08-25-31,
present,0.6,mester_compressed.wav,mester,babble_64.wav,konge_reversed.wav,forfald_reversed.wav,,,,,0,64,64,64,,,z,0.758808249986032,Miss,1.0169710358482076,234567,001,2025-11-19_08-25-31,
absent,0.7,SILENCE,NA,babble_87.wav,ensom_reversed.wav,patent_reversed.wav,,,,,0,65,65,65,,,z,1.194879500020761,Correct Rejection,1.321895609768769,234567,001,2025-11-19_08-25-31,
absent,0.5,SILENCE,NA,babble_18.wav,søsyg_reversed.wav,lampe_reversed.wav,,,,,0,66,66,66,,,m,0.5534829999960493,False Alarm,1.1807920405364087,234567,001,2025-11-19_08-25-31,
present,0.6,pervers_compressed.wav,pervers,babble_7.wav,talent_reversed.wav,stjerne_reversed.wav,,,,,0,67,67,67,,,m,0.43112937500700355,Hit,0.6312945110758384,234567,001,2025-11-19_08-25-31,
present,0.6,blodig_compressed.wav,blodig,babble_56.wav,forkert_reversed.wav,hage_reversed.wav,,,,,0,68,68,68,,,z,0.6966132080124225,Miss,0.9568031085674985,234567,001,2025-11-19_08-25-31,
present,0.4,grusom_compressed.wav,grusom,babble_9.wav,vindue_reversed.wav,konge_reversed.wav,,,,,0,69,69,69,,,z,0.6713443750049919,Miss,1.0922265241719493,234567,001,2025-11-19_08-25-31,
absent,0.2,SILENCE,NA,babble_52.wav,vindue_reversed.wav,passion_reversed.wav,,,,,0,70,70,70,,,z,0.7627721670141909,Correct Rejection,0.6467825841565668,234567,001,2025-11-19_08-25-31,
absent,0.2,SILENCE,NA,babble_98.wav,djævel_reversed.wav,blomstre_reversed.wav,,,,,0,71,71,71,,,z,1.32983816601336,Correct Rejection,0.63073094382808,234567,001,2025-11-19_08-25-31,
absent,0.1,SILENCE,NA,babble_71.wav,måned_reversed.wav,flirte_reversed.wav,,,,,0,72,72,72,,,z,1.6000397089810576,Correct Rejection,0.7635856122280941,234567,001,2025-11-19_08-25-31,
absent,0.2,SILENCE,NA,babble_14.wav,sygdom_reversed.wav,himmel_reversed.wav,,,,,0,73,73,73,,,z,0.617652208020445,Correct Rejection,0.636478628968256,234567,001,2025-11-19_08-25-31,
present,0.6,fase_compressed.wav,fase,babble_3.wav,sæde_reversed.wav,selvmord_reversed.wav,,,,,0,74,74,74,,,m,0.6324814580148086,Hit,0.7494321570618661,234567,001,2025-11-19_08-25-31,
absent,0.6,SILENCE,NA,babble_40.wav,flirte_reversed.wav,frygtsom_reversed.wav,,,,,0,75,75,75,,,z,0.7258102909836452,Correct Rejection,0.8572390637420054,234567,001,2025-11-19_08-25-31,
absent,0.3,SILENCE,NA,babble_76.wav,patent_reversed.wav,genert_reversed.wav,,,,,0,76,76,76,,,z,0.7376295409922022,Correct Rejection,1.228282038405447,234567,001,2025-11-19_08-25-31,
present,0.1,konge_compressed.wav,konge,babble_80.wav,trussel_reversed.wav,gave_reversed.wav,,,,,0,77,77,77,,,m,0.2720279580098577,Hit,0.5897172452707509,234567,001,2025-11-19_08-25-31,
present,0.3,fase_compressed.wav,fase,babble_21.wav,vandal_reversed.wav,enhed_reversed.wav,,,,,0,78,78,78,,,z,0.6582329169905279,Miss,0.7298465790908485,234567,001,2025-11-19_08-25-31,
present,0.1,nøgle_compressed.wav,nøgle,babble_48.wav,patent_reversed.wav,knude_reversed.wav,,,,,0,79,79,79,,,m,0.3301256670092698,Hit,1.4062465243990991,234567,001,2025-11-19_08-25-31,
present,0.2,vindue_compressed.wav,vindue,babble_28.wav,pjece_reversed.wav,statue_reversed.wav,,,,,0,80,80,80,,,m,0.35365845801425166,Hit,0.9823985530040036,234567,001,2025-11-19_08-25-31,
absent,0.1,SILENCE,NA,babble_23.wav,sexet_reversed.wav,enhed_reversed.wav,,,,,0,81,81,81,,,z,0.6096000410034321,Correct Rejection,1.2638041046728714,234567,001,2025-11-19_08-25-31,
present,0.4,konkurs_compressed.wav,konkurs,babble_92.wav,sandhed_reversed.wav,væmmes_reversed.wav,,,,,0,82,82,82,,,z,0.6130031250067987,Miss,1.1206455116647192,234567,001,2025-11-19_08-25-31,
present,0.7,stjerne_compressed.wav,stjerne,babble_11.wav,pude_reversed.wav,bygning_reversed.wav,,,,,0,83,83,83,,,m,0.25774291600100696,Hit,1.390383306937717,234567,001,2025-11-19_08-25-31,
present,0.1,humor_compressed.wav,humor,babble_90.wav,banner_reversed.wav,genert_reversed.wav,,,,,0,84,84,84,,,z,0.4891847919789143,Miss,0.883851628323284,234567,001,2025-11-19_08-25-31,
present,0.6,lærer_compressed.wav,lærer,babble_38.wav,gade_reversed.wav,redning_reversed.wav,,,,,0,85,85,85,,,z,0.48485662500024773,Miss,1.1655334661916568,234567,001,2025-11-19_08-25-31,
present,0.4,vandfald_compressed.wav,vandfald,babble_35.wav,nedbrud_reversed.wav,misbrug_reversed.wav,,,,,0,86,86,86,,,m,0.2684601249929983,Hit,0.8618411659292645,234567,001,2025-11-19_08-25-31,
present,0.5,magisk_compressed.wav,magisk,babble_11.wav,nedbrud_reversed.wav,regnbue_reversed.wav,,,,,0,87,87,87,,,m,0.2918243329913821,Hit,0.5697761360504148,234567,001,2025-11-19_08-25-31,
absent,0.5,SILENCE,NA,babble_95.wav,poesi_reversed.wav,kiste_reversed.wav,,,,,0,88,88,88,,,z,2.1862360410159454,Correct Rejection,0.8735221216175216,234567,001,2025-11-19_08-25-31,
absent,0.6,SILENCE,NA,babble_96.wav,væmmes_reversed.wav,grusom_reversed.wav,,,,,0,89,89,89,,,z,0.8303697920055129,Correct Rejection,1.4232788631347892,234567,001,2025-11-19_08-25-31,
present,0.7,statue_compressed.wav,statue,babble_58.wav,morder_reversed.wav,fedme_reversed.wav,,,,,0,90,90,90,,,z,0.6439387499995064,Miss,0.5926815012804763,234567,001,2025-11-19_08-25-31,
absent,0.5,SILENCE,NA,babble_98.wav,poesi_reversed.wav,rådden_reversed.wav,,,,,0,91,91,91,,,z,1.8482555000227876,Correct Rejection,0.8073642371230808,234567,001,2025-11-19_08-25-31,
absent,0.5,SILENCE,NA,babble_83.wav,maling_reversed.wav,væmmes_reversed.wav,,,,,0,92,92,92,,,z,2.090179499995429,Correct Rejection,0.6951536169674917,234567,001,2025-11-19_08-25-31,
present,0.4,beundret_compressed.wav,beundret,babble_14.wav,flirte_reversed.wav,gave_reversed.wav,,,,,0,93,93,93,,,z,1.3118655419966672,Miss,1.1791331826042177,234567,001,2025-11-19_08-25-31,
present,0.4,poesi_compressed.wav,poesi,babble_12.wav,banner_reversed.wav,luksus_reversed.wav,,,,,0,94,94,94,,,z,0.5449186249752529,Miss,0.5954846324470296,234567,001,2025-11-19_08-25-31,
present,0.6,avis_compressed.wav,avis,babble_85.wav,himmel_reversed.wav,slave_reversed.wav,,,,,0,95,95,95,,,m,0.24810633299057372,Hit,0.9147342623287714,234567,001,2025-11-19_08-25-31,
absent,0.4,SILENCE,NA,babble_87.wav,flirte_reversed.wav,stjerne_reversed.wav,,,,,0,96,96,96,,,m,0.5781765829888172,False Alarm,0.7471212143985471,234567,001,2025-11-19_08-25-31,
absent,0.1,SILENCE,NA,babble_10.wav,gade_reversed.wav,venlig_reversed.wav,,,,,0,97,97,97,,,z,0.38527820800663903,Correct Rejection,0.7288597054875848,234567,001,2025-11-19_08-25-31,
absent,0.3,SILENCE,NA,babble_9.wav,papir_reversed.wav,kugle_reversed.wav,,,,,0,98,98,98,,,z,0.8630549160006922,Correct Rejection,0.8125328380809118,234567,001,2025-11-19_08-25-31,
present,0.5,rådden_compressed.wav,rådden,babble_14.wav,luksus_reversed.wav,diamant_reversed.wav,,,,,0,99,99,99,,,z,0.6682087500230409,Miss,0.7308449572746223,234567,001,2025-11-19_08-25-31,
absent,0.2,SILENCE,NA,babble_91.wav,forfald_reversed.wav,konge_reversed.wav,,,,,0,100,100,100,,,z,0.6049894999887329,Correct Rejection,0.8337983102830262,234567,001,2025-11-19_08-25-31,
absent,0.7,SILENCE,NA,babble_26.wav,pervers_reversed.wav,putte_reversed.wav,,,,,0,101,101,101,,,m,0.5423174580209889,False Alarm,0.7816884651895479,234567,001,2025-11-19_08-25-31,
absent,0.5,SILENCE,NA,babble_9.wav,vandal_reversed.wav,regnbue_reversed.wav,,,,,0,102,102,102,,,z,0.7107164159824606,Correct Rejection,1.2509509669073626,234567,001,2025-11-19_08-25-31,
present,0.3,viden_compressed.wav,viden,babble_38.wav,mester_reversed.wav,redskab_reversed.wav,,,,,0,103,103,103,,,z,1.2472837920067832,Miss,1.2291145242028607,234567,001,2025-11-19_08-25-31,
absent,0.2,SILENCE,NA,babble_96.wav,pervers_reversed.wav,kugle_reversed.wav,,,,,0,104,104,104,,,m,0.31916408299002796,False Alarm,0.9432141296689518,234567,001,2025-11-19_08-25-31,
absent,0.3,SILENCE,NA,babble_20.wav,illoyal_reversed.wav,hjerte_reversed.wav,,,,,0,105,105,105,,,z,1.851487374980934,Correct Rejection,0.5769392281460743,234567,001,2025-11-19_08-25-31,
present,0.5,tortur_compressed.wav,tortur,babble_23.wav,ankel_reversed.wav,måned_reversed.wav,,,,,0,106,106,106,,,z,0.5056709999917075,Miss,1.2725189593009107,234567,001,2025-11-19_08-25-31,
present,0.6,bange_compressed.wav,bange,babble_48.wav,lækker_reversed.wav,stjerne_reversed.wav,,,,,0,107,107,107,,,z,0.5917248339974321,Miss,0.8901222659811446,234567,001,2025-11-19_08-25-31,
present,0.7,venlig_compressed.wav,venlig,babble_6.wav,engel_reversed.wav,engel_reversed.wav,,,,,0,108,108,108,,,z,0.5425648750097025,Miss,0.554046039361838,234567,001,2025-11-19_08-25-31,
present,0.3,kysse_compressed.wav,kysse,babble_15.wav,luksus_reversed.wav,kujon_reversed.wav,,,,,0,109,109,109,,,z,1.8975398749753367,Miss,0.673574416093858,234567,001,2025-11-19_08-25-31,
absent,0.6,SILENCE,NA,babble_25.wav,passion_reversed.wav,konge_reversed.wav,,,,,0,110,110,110,,,z,0.44295933298417367,Correct Rejection,1.386228390621245,234567,001,2025-11-19_08-25-31,
present,0.5,nedbrud_compressed.wav,nedbrud,babble_2.wav,oprørt_reversed.wav,bygning_reversed.wav,,,,,0,111,111,111,,,z,0.5131107910128776,Miss,0.6752834854522201,234567,001,2025-11-19_08-25-31,
present,0.1,finger_compressed.wav,finger,babble_52.wav,gave_reversed.wav,dollar_reversed.wav,,,,,0,112,112,112,,,z,1.0938969999842811,Miss,0.9219952702938423,234567,001,2025-11-19_08-25-31,
absent,0.1,SILENCE,NA,babble_99.wav,skønhed_reversed.wav,fjollet_reversed.wav,,,,,0,113,113,113,,,z,1.0893307079968508,Correct Rejection,1.3108276758406157,234567,001,2025-11-19_08-25-31,
absent,0.4,SILENCE,NA,babble_95.wav,fremskridt_reversed.wav,giftig_reversed.wav,,,,,0,114,114,114,,,z,0.9203332499891985,Correct Rejection,0.9601565402031542,234567,001,2025-11-19_08-25-31,
absent,0.3,SILENCE,NA,babble_96.wav,diamant_reversed.wav,taber_reversed.wav,,,,,0,115,115,115,,,z,0.5001414999715053,Correct Rejection,0.8164780201016113,234567,001,2025-11-19_08-25-31,
present,0.2,nonne_compressed.wav,nonne,babble_44.wav,albue_reversed.wav,syndig_reversed.wav,,,,,0,116,116,116,,,m,0.27893383300397545,Hit,1.001486648881449,234567,001,2025-11-19_08-25-31,
present,0.5,kvæles_compressed.wav,kvæles,babble_11.wav,ketchup_reversed.wav,museum_reversed.wav,,,,,0,117,117,117,,,z,0.44968891600728966,Miss,0.7120207839223405,234567,001,2025-11-19_08-25-31,
absent,0.2,SILENCE,NA,babble_33.wav,kugle_reversed.wav,latter_reversed.wav,,,,,0,118,118,118,,,z,0.4636762500158511,Correct Rejection,1.4187485294617455,234567,001,2025-11-19_08-25-31,
absent,0.6,SILENCE,NA,babble_79.wav,modgang_reversed.wav,fremskridt_reversed.wav,,,,,0,119,119,119,,,z,0.4859451249940321,Correct Rejection,0.6519383738974347,234567,001,2025-11-19_08-25-31,
present,0.4,fjollet_compressed.wav,fjollet,babble_42.wav,spænding_reversed.wav,dæmpet_reversed.wav,,,,,0,120,120,120,,,m,0.3002073749958072,Hit,1.2022785770187425,234567,001,2025-11-19_08-25-31,
present,0.6,røver_compressed.wav,røver,babble_64.wav,hader_reversed.wav,tortur_reversed.wav,,,,,0,121,121,121,,,z,0.4212142080068588,Miss,1.388353276673711,234567,001,2025-11-19_08-25-31,
absent,0.5,SILENCE,NA,babble_98.wav,magisk_reversed.wav,frygtsom_reversed.wav,,,,,0,122,122,122,,,z,0.5739321250002831,Correct Rejection,1.4372925772969491,234567,001,2025-11-19_08-25-31,
present,0.3,lækker_compressed.wav,lækker,babble_17.wav,motor_reversed.wav,dæmpet_reversed.wav,,,,,0,123,123,123,,,z,0.7277976250043139,Miss,0.6932017429249497,234567,001,2025-11-19_08-25-31,
present,0.3,ønske_compressed.wav,ønske,babble_62.wav,djævel_reversed.wav,rabies_reversed.wav,,,,,0,124,124,124,,,m,0.3299613749841228,Hit,1.3485676697690168,234567,001,2025-11-19_08-25-31,
present,0.3,penge_compressed.wav,penge,babble_92.wav,fase_reversed.wav,hader_reversed.wav,,,,,0,125,125,125,,,z,1.127905125002144,Miss,1.2394831446920311,234567,001,2025-11-19_08-25-31,
present,0.2,taber_compressed.wav,taber,babble_76.wav,gave_reversed.wav,trussel_reversed.wav,,,,,0,126,126,126,,,m,0.6193335420102812,Hit,1.0728627269966255,234567,001,2025-11-19_08-25-31,
present,0.7,konge_compressed.wav,konge,babble_68.wav,marked_reversed.wav,luksus_reversed.wav,,,,,0,127,127,127,,,z,0.5072358330071438,Miss,0.5863845509809795,234567,001,2025-11-19_08-25-31,
present,0.1,sæde_compressed.wav,sæde,babble_3.wav,rådden_reversed.wav,redning_reversed.wav,,,,,0,128,128,128,,,z,0.6230823330115527,Miss,1.2823029495686482,234567,001,2025-11-19_08-25-31,
present,0.7,frelser_compressed.wav,frelser,babble_13.wav,pude_reversed.wav,gade_reversed.wav,,,,,0,129,129,129,,,m,0.5046856660046615,Hit,0.9894759594486057,234567,001,2025-11-19_08-25-31,
present,0.7,ketchup_compressed.wav,ketchup,babble_97.wav,stjerne_reversed.wav,fase_reversed.wav,,,,,0,130,130,130,,,m,0.7239583339833189,Hit,0.544093306450232,234567,001,2025-11-19_08-25-31,
present,0.7,plakat_compressed.wav,plakat,babble_0.wav,venlig_reversed.wav,vindue_reversed.wav,,,,,0,131,131,131,,,z,0.5424594590149354,Miss,0.5208967825825573,234567,001,2025-11-19_08-25-31,
absent,0.4,SILENCE,NA,babble_6.wav,accept_reversed.wav,ketchup_reversed.wav,,,,,0,132,132,132,,,z,0.5664439579995815,Correct Rejection,0.6142897855436653,234567,001,2025-11-19_08-25-31,
absent,0.3,SILENCE,NA,babble_52.wav,slagtning_reversed.wav,flirte_reversed.wav,,,,,0,133,133,133,,,z,0.6643596249923576,Correct Rejection,0.7181235203216708,234567,001,2025-11-19_08-25-31,
absent,0.5,SILENCE,NA,babble_24.wav,tilfreds_reversed.wav,brænde_reversed.wav,,,,,0,134,134,134,,,z,1.0912763749947771,Correct Rejection,1.4795381914196177,234567,001,2025-11-19_08-25-31,
present,0.2,pervers_compressed.wav,pervers,babble_49.wav,viden_reversed.wav,blomstre_reversed.wav,,,,,0,135,135,135,,,z,0.5284765840042382,Miss,0.6929006569444467,234567,001,2025-11-19_08-25-31,
absent,0.5,SILENCE,NA,babble_61.wav,nøgle_reversed.wav,misbrug_reversed.wav,,,,,0,136,136,136,,,z,0.5556654169922695,Correct Rejection,1.4070455113597764,234567,001,2025-11-19_08-25-31,
absent,0.5,SILENCE,NA,babble_35.wav,kiste_reversed.wav,taber_reversed.wav,,,,,0,137,137,137,,,z,0.5794805409968831,Correct Rejection,0.5215125922905572,234567,001,2025-11-19_08-25-31,
absent,0.6,SILENCE,NA,babble_14.wav,humor_reversed.wav,borddug_reversed.wav,,,,,0,138,138,138,,,z,0.41294558299705386,Correct Rejection,0.7752658402466946,234567,001,2025-11-19_08-25-31,
absent,0.7,SILENCE,NA,babble_78.wav,lampe_reversed.wav,sexet_reversed.wav,,,,,0,139,139,139,,,z,0.8830187499988824,Correct Rejection,0.8906128520701391,234567,001,2025-11-19_08-25-31,
present,0.4,affald_compressed.wav,affald,babble_3.wav,nonsens_reversed.wav,maling_reversed.wav,,,,,0,140,140,140,,,m,0.4326891670061741,Hit,0.8237975062657813,234567,001,2025-11-19_08-25-31,
present,0.1,spænding_compressed.wav,spænding,babble_40.wav,genstand_reversed.wav,konkurs_reversed.wav,,,,,0,141,141,141,,,z,0.4107382500078529,Miss,0.504280750277357,234567,001,2025-11-19_08-25-31,
absent,0.7,SILENCE,NA,babble_78.wav,frygtsom_reversed.wav,slagtning_reversed.wav,,,,,0,142,142,142,,,z,2.483349415997509,Correct Rejection,1.1250302976407522,234567,001,2025-11-19_08-25-31,
present,0.5,lækker_compressed.wav,lækker,babble_55.wav,sikker_reversed.wav,djævel_reversed.wav,,,,,0,143,143,143,,,z,0.5370806249848101,Miss,0.9020418062887087,234567,001,2025-11-19_08-25-31,
present,0.3,ærlig_compressed.wav,ærlig,babble_53.wav,avis_reversed.wav,krise_reversed.wav,,,,,0,144,144,144,,,z,0.473167416988872,Miss,0.9326972989290555,234567,001,2025-11-19_08-25-31,
present,0.7,voldsom_compressed.wav,voldsom,babble_92.wav,skønhed_reversed.wav,affald_reversed.wav,,,,,0,145,145,145,,,m,0.32477954198839143,Hit,0.8837134190623205,234567,001,2025-11-19_08-25-31,
present,0.6,feber_compressed.wav,feber,babble_31.wav,pude_reversed.wav,papir_reversed.wav,,,,,0,146,146,146,,,z,1.3602931659843307,Miss,1.1050471530425423,234567,001,2025-11-19_08-25-31,
absent,0.7,SILENCE,NA,babble_67.wav,metal_reversed.wav,hjerte_reversed.wav,,,,,0,147,147,147,,,z,0.8418287500098813,Correct Rejection,0.9671609393885252,234567,001,2025-11-19_08-25-31,
present,0.4,fængsel_compressed.wav,fængsel,babble_34.wav,avis_reversed.wav,slave_reversed.wav,,,,,0,148,148,148,,,z,0.7848320830089506,Miss,1.261662786348964,234567,001,2025-11-19_08-25-31,
absent,0.7,SILENCE,NA,babble_73.wav,skammel_reversed.wav,lyse_reversed.wav,,,,,0,149,149,149,,,z,0.5438310830213595,Correct Rejection,0.9725852376784954,234567,001,2025-11-19_08-25-31,
absent,0.7,SILENCE,NA,babble_87.wav,oprørt_reversed.wav,hader_reversed.wav,,,,,0,150,150,150,,,z,1.7835104169789702,Correct Rejection,0.5270123807052358,234567,001,2025-11-19_08-25-31,
present,0.5,sygdom_compressed.wav,sygdom,babble_91.wav,banner_reversed.wav,talent_reversed.wav,,,,,0,151,151,151,,,z,2.836496999982046,Miss,1.2674188977043923,234567,001,2025-11-19_08-25-31,
absent,0.3,SILENCE,NA,babble_42.wav,heldig_reversed.wav,fase_reversed.wav,,,,,0,152,152,152,,,z,0.42532762500923127,Correct Rejection,0.5077944592969915,234567,001,2025-11-19_08-25-31,
present,0.1,røver_compressed.wav,røver,babble_67.wav,kande_reversed.wav,passion_reversed.wav,,,,,0,153,153,153,,,m,0.6390190419915598,Hit,0.7806678838635762,234567,001,2025-11-19_08-25-31,
present,0.4,festlig_compressed.wav,festlig,babble_25.wav,salat_reversed.wav,tumor_reversed.wav,,,,,0,154,154,154,,,z,0.5407033330120612,Miss,0.5292436767093985,234567,001,2025-11-19_08-25-31,
absent,0.4,SILENCE,NA,babble_32.wav,sexet_reversed.wav,genert_reversed.wav,,,,,0,155,155,155,,,z,0.3747642500093207,Correct Rejection,0.6697144247149697,234567,001,2025-11-19_08-25-31,
present,0.7,brænde_compressed.wav,brænde,babble_62.wav,traume_reversed.wav,kæle_reversed.wav,,,,,0,156,156,156,,,z,1.164085291995434,Miss,0.6413888932235248,234567,001,2025-11-19_08-25-31,
present,0.5,kærtegn_compressed.wav,kærtegn,babble_50.wav,pjece_reversed.wav,misbrug_reversed.wav,,,,,0,157,157,157,,,m,0.8770203329913784,Hit,0.9591916143448801,234567,001,2025-11-19_08-25-31,
present,0.4,jubel_compressed.wav,jubel,babble_2.wav,bygning_reversed.wav,metal_reversed.wav,,,,,0,158,158,158,,,z,0.4103318749985192,Miss,0.9487727704854194,234567,001,2025-11-19_08-25-31,
present,0.2,søsyg_compressed.wav,søsyg,babble_34.wav,bombe_reversed.wav,gave_reversed.wav,,,,,0,159,159,159,,,z,0.5996064160135575,Miss,0.6405523816696373,234567,001,2025-11-19_08-25-31,
present,0.6,sollys_compressed.wav,sollys,babble_28.wav,kærtegn_reversed.wav,fase_reversed.wav,,,,,0,160,160,160,,,z,0.5631854590028524,Miss,0.5257532126502168,234567,001,2025-11-19_08-25-31,
absent,0.4,SILENCE,NA,babble_47.wav,nøgle_reversed.wav,humor_reversed.wav,,,,,0,161,161,161,,,z,0.6328623330045957,Correct Rejection,0.6755761101353926,234567,001,2025-11-19_08-25-31,
present,0.7,vindue_compressed.wav,vindue,babble_46.wav,brænde_reversed.wav,feber_reversed.wav,,,,,0,162,162,162,,,z,0.7180735419970006,Miss,1.1064413243538012,234567,001,2025-11-19_08-25-31,
absent,0.4,SILENCE,NA,babble_26.wav,albue_reversed.wav,tumor_reversed.wav,,,,,0,163,163,163,,,z,0.8479968330066185,Correct Rejection,0.5036784468234049,234567,001,2025-11-19_08-25-31,
absent,0.3,SILENCE,NA,babble_88.wav,putte_reversed.wav,sæde_reversed.wav,,,,,0,164,164,164,,,z,0.560283166996669,Correct Rejection,1.2457923050922215,234567,001,2025-11-19_08-25-31,
absent,0.4,SILENCE,NA,babble_99.wav,banner_reversed.wav,spise_reversed.wav,,,,,0,165,165,165,,,z,0.7366485410020687,Correct Rejection,0.7880218815014546,234567,001,2025-11-19_08-25-31,
absent,0.4,SILENCE,NA,babble_13.wav,kæle_reversed.wav,luksus_reversed.wav,,,,,0,166,166,166,,,z,0.6356742500211112,Correct Rejection,0.5266211124152885,234567,001,2025-11-19_08-25-31,
absent,0.7,SILENCE,NA,babble_76.wav,fiasko_reversed.wav,giftig_reversed.wav,,,,,0,167,167,167,,,z,1.0059977079799864,Correct Rejection,1.1305407498948519,234567,001,2025-11-19_08-25-31,
absent,0.7,SILENCE,NA,babble_11.wav,misbrug_reversed.wav,marked_reversed.wav,,,,,0,168,168,168,,,z,0.59051308297785,Correct Rejection,1.385149824417061,234567,001,2025-11-19_08-25-31,
present,0.1,heldig_compressed.wav,heldig,babble_73.wav,syndig_reversed.wav,måned_reversed.wav,,,,,0,169,169,169,,,m,0.3915155830036383,Hit,1.2389028957484096,234567,001,2025-11-19_08-25-31,
present,0.4,drukne_compressed.wav,drukne,babble_75.wav,magisk_reversed.wav,skuffe_reversed.wav,,,,,0,170,170,170,,,z,0.7454418750130571,Miss,1.4811466582031065,234567,001,2025-11-19_08-25-31,
absent,0.4,SILENCE,NA,babble_25.wav,forfald_reversed.wav,slave_reversed.wav,,,,,0,171,171,171,,,z,0.631514208012959,Correct Rejection,0.8842347103468082,234567,001,2025-11-19_08-25-31,
absent,0.5,SILENCE,NA,babble_82.wav,motor_reversed.wav,affald_reversed.wav,,,,,0,172,172,172,,,z,0.4275611250195652,Correct Rejection,1.4803331313273569,234567,001,2025-11-19_08-25-31,
absent,0.7,SILENCE,NA,babble_8.wav,nedbrud_reversed.wav,fiasko_reversed.wav,,,,,0,173,173,173,,,z,2.0728161669976544,Correct Rejection,1.0099972907020158,234567,001,2025-11-19_08-25-31,
absent,0.3,SILENCE,NA,babble_88.wav,tumor_reversed.wav,gratis_reversed.wav,,,,,0,174,174,174,,,z,0.6426084580016322,Correct Rejection,1.1035586539054294,234567,001,2025-11-19_08-25-31,
absent,0.4,SILENCE,NA,babble_96.wav,ugle_reversed.wav,ledning_reversed.wav,,,,,0,175,175,175,,,z,1.3041996670071967,Correct Rejection,0.5745361791328196,234567,001,2025-11-19_08-25-31,
absent,0.1,SILENCE,NA,babble_89.wav,kiste_reversed.wav,frygtsom_reversed.wav,,,,,0,176,176,176,,,z,0.5761838330072351,Correct Rejection,0.7144995851703525,234567,001,2025-11-19_08-25-31,
present,0.7,utro_compressed.wav,utro,babble_88.wav,oprør_reversed.wav,finger_reversed.wav,,,,,0,177,177,177,,,z,0.7142444160126615,Miss,1.0119735014173346,234567,001,2025-11-19_08-25-31,
absent,0.2,SILENCE,NA,babble_66.wav,humor_reversed.wav,spænding_reversed.wav,,,,,0,178,178,178,,,z,0.6941499170206953,Correct Rejection,0.7684856400483536,234567,001,2025-11-19_08-25-31,
absent,0.5,SILENCE,NA,babble_23.wav,ugle_reversed.wav,finger_reversed.wav,,,,,0,179,179,179,,,z,0.9865582500060555,Correct Rejection,1.3208724127903047,234567,001,2025-11-19_08-25-31,
absent,0.1,SILENCE,NA,babble_13.wav,ørken_reversed.wav,dollar_reversed.wav,,,,,0,180,180,180,,,z,0.9820229999895673,Correct Rejection,0.6314124274661634,234567,001,2025-11-19_08-25-31,
present,0.2,ketchup_compressed.wav,ketchup,babble_36.wav,regnbue_reversed.wav,plakat_reversed.wav,,,,,0,181,181,181,,,m,0.4006721660261974,Hit,1.2613861132547033,234567,001,2025-11-19_08-25-31,
present,0.1,statue_compressed.wav,statue,babble_65.wav,oprør_reversed.wav,nedbrud_reversed.wav,,,,,0,182,182,182,,,m,0.51233608298935,Hit,1.0305278121032622,234567,001,2025-11-19_08-25-31,
present,0.5,vandal_compressed.wav,vandal,babble_66.wav,sexet_reversed.wav,dæmpet_reversed.wav,,,,,0,183,183,183,,,z,0.5451969580026343,Miss,1.0732241819577693,234567,001,2025-11-19_08-25-31,
absent,0.2,SILENCE,NA,babble_44.wav,sikker_reversed.wav,vandfald_reversed.wav,,,,,0,184,184,184,,,z,0.5873643750092015,Correct Rejection,1.1165558344053221,234567,001,2025-11-19_08-25-31,
absent,0.4,SILENCE,NA,babble_46.wav,festlig_reversed.wav,kujon_reversed.wav,,,,,0,185,185,185,,,z,0.5460114159795921,Correct Rejection,1.0090299400076854,234567,001,2025-11-19_08-25-31,
absent,0.6,SILENCE,NA,babble_45.wav,engel_reversed.wav,trofæ_reversed.wav,,,,,0,186,186,186,,,z,0.43389679200481623,Correct Rejection,0.6950069006368845,234567,001,2025-11-19_08-25-31,
absent,0.1,SILENCE,NA,babble_65.wav,humor_reversed.wav,væmmes_reversed.wav,,,,,0,187,187,187,,,z,0.4961499999917578,Correct Rejection,0.9137782920304732,234567,001,2025-11-19_08-25-31,
absent,0.2,SILENCE,NA,babble_10.wav,krise_reversed.wav,putte_reversed.wav,,,,,0,188,188,188,,,z,0.4177609170146752,Correct Rejection,1.4861358906962265,234567,001,2025-11-19_08-25-31,
absent,0.3,SILENCE,NA,babble_41.wav,skammel_reversed.wav,blomstre_reversed.wav,,,,,0,189,189,189,,,z,1.3602266250236426,Correct Rejection,0.9668871030913181,234567,001,2025-11-19_08-25-31,
absent,0.6,SILENCE,NA,babble_3.wav,kontor_reversed.wav,rædsel_reversed.wav,,,,,0,190,190,190,,,z,0.6044586670177523,Correct Rejection,0.7539897746917721,234567,001,2025-11-19_08-25-31,
absent,0.3,SILENCE,NA,babble_47.wav,tumor_reversed.wav,kugle_reversed.wav,,,,,0,191,191,191,,,z,1.314728917001048,Correct Rejection,0.9867089350648824,234567,001,2025-11-19_08-25-31,
absent,0.1,SILENCE,NA,babble_18.wav,fase_reversed.wav,djævel_reversed.wav,,,,,0,192,192,192,,,z,0.7815407919988502,Correct Rejection,1.1505024452915014,234567,001,2025-11-19_08-25-31,
absent,0.1,SILENCE,NA,babble_93.wav,respekt_reversed.wav,pjece_reversed.wav,,,,,0,193,193,193,,,z,0.7612547920143697,Correct Rejection,1.191239144158391,234567,001,2025-11-19_08-25-31,
present,0.7,sexet_compressed.wav,sexet,babble_75.wav,fremskridt_reversed.wav,knude_reversed.wav,,,,,0,194,194,194,,,z,0.49889808302395977,Miss,1.3012928920339413,234567,001,2025-11-19_08-25-31,
present,0.5,afvist_compressed.wav,afvist,babble_38.wav,sexet_reversed.wav,nonne_reversed.wav,,,,,0,195,195,195,,,m,0.49144829099532217,Hit,0.7127026025149347,234567,001,2025-11-19_08-25-31,
absent,0.2,SILENCE,NA,babble_98.wav,gidsel_reversed.wav,giftig_reversed.wav,,,,,0,196,196,196,,,z,0.5608680839941371,Correct Rejection,0.8499571071111761,234567,001,2025-11-19_08-25-31,
present,0.1,natur_compressed.wav,natur,babble_11.wav,konge_reversed.wav,trussel_reversed.wav,,,,,0,197,197,197,,,m,0.2742900000012014,Hit,1.0560232126948916,234567,001,2025-11-19_08-25-31,
absent,0.4,SILENCE,NA,babble_54.wav,skønhed_reversed.wav,oprørt_reversed.wav,,,,,0,198,198,198,,,z,0.6347276250016876,Correct Rejection,1.1016515744719864,234567,001,2025-11-19_08-25-31,
present,0.3,violin_compressed.wav,violin,babble_6.wav,gaffel_reversed.wav,affald_reversed.wav,,,,,0,199,199,199,,,z,3.308209042006638,Miss,0.9887311764861527,234567,001,2025-11-19_08-25-31,
present,0.7,vandfald_compressed.wav,vandfald,babble_94.wav,regnbue_reversed.wav,smerte_reversed.wav,,,,,0,200,200,200,,,z,0.6245387920062058,Miss,0.6367631093976137,234567,001,2025-11-19_08-25-31,
present,0.2,taxa_compressed.wav,taxa,babble_12.wav,utro_reversed.wav,lærer_reversed.wav,,,,,0,201,201,201,,,m,0.31893791700713336,Hit,1.2815984369815325,234567,001,2025-11-19_08-25-31,
absent,0.1,SILENCE,NA,babble_80.wav,heldig_reversed.wav,oprørt_reversed.wav,,,,,0,202,202,202,,,z,0.3523491669911891,Correct Rejection,0.9598476585104435,234567,001,2025-11-19_08-25-31,
present,0.1,skønhed_compressed.wav,skønhed,babble_19.wav,gratis_reversed.wav,konkurs_reversed.wav,,,,,0,203,203,203,,,m,1.5249960829969496,Hit,0.8760483653397296,234567,001,2025-11-19_08-25-31,
absent,0.6,SILENCE,NA,babble_4.wav,sollys_reversed.wav,pude_reversed.wav,,,,,0,204,204,204,,,z,0.44579095899825916,Correct Rejection,0.5196903010168192,234567,001,2025-11-19_08-25-31,
present,0.5,offer_compressed.wav,offer,babble_74.wav,motor_reversed.wav,smerte_reversed.wav,,,,,0,205,205,205,,,z,0.47558770899195224,Miss,0.7299958262081683,234567,001,2025-11-19_08-25-31,
absent,0.5,SILENCE,NA,babble_62.wav,hage_reversed.wav,blomstre_reversed.wav,,,,,0,206,206,206,,,z,0.5779931249853689,Correct Rejection,1.411783713503175,234567,001,2025-11-19_08-25-31,
absent,0.3,SILENCE,NA,babble_33.wav,kedel_reversed.wav,himlen_reversed.wav,,,,,0,207,207,207,,,z,0.3353372080018744,Correct Rejection,1.232265407618229,234567,001,2025-11-19_08-25-31,
absent,0.2,SILENCE,NA,babble_76.wav,feber_reversed.wav,traume_reversed.wav,,,,,0,208,208,208,,,z,0.4611636250047013,Correct Rejection,0.965137735587058,234567,001,2025-11-19_08-25-31,
absent,0.1,SILENCE,NA,babble_71.wav,salat_reversed.wav,natur_reversed.wav,,,,,0,209,209,209,,,z,0.47065041700261645,Correct Rejection,0.5126585007935806,234567,001,2025-11-19_08-25-31,
