trial_i,face_file,prime_file,prime_valence,babbling_file,mask1_file,mask2_file,practice.thisRepN,practice.thisTrialN,practice.thisN,practice.thisIndex,main.thisRepN,main.thisTrialN,main.thisN,main.thisIndex,response_key,rt,Participant ID,Session,date,
168,AM10HAS.JPG,dollar_compressed.wav,positive,babble_33.wav,ferie_reversed.wav,skade_reversed.wav,0,0,0,0,0,-1,-1,0,7,8.443059921264648,1119,001,2025-11-28_15-05-09,
190,AM21NES.JPG,natur_compressed.wav,positive,babble_23.wav,genert_reversed.wav,ugle_reversed.wav,0,1,1,1,0,-1,-1,0,2,1.1021230220794678,1119,001,2025-11-28_15-05-09,
175,AF22NES.JPG,SILENCE,no-prime,babble_14.wav,nonsens_reversed.wav,pude_reversed.wav,0,2,2,2,0,-1,-1,0,3,0.8366842269897461,1119,001,2025-11-28_15-05-09,
113,AF06ANS.JPG,vindue_compressed.wav,neutral,babble_62.wav,natur_reversed.wav,ferie_reversed.wav,0,3,3,3,0,-1,-1,0,1,4.090312957763672,1119,001,2025-11-28_15-05-09,
19,AF04ANS.JPG,himmel_compressed.wav,positive,babble_42.wav,gidsel_reversed.wav,trofæ_reversed.wav,0,4,4,4,0,-1,-1,0,4,2.391080856323242,1119,001,2025-11-28_15-05-09,
170,AF08ANS.JPG,SILENCE,no-prime,babble_79.wav,søsyg_reversed.wav,blomstre_reversed.wav,0,5,5,5,0,-1,-1,0,3,1.4744629859924316,1119,001,2025-11-28_15-05-09,
143,AM14HAS.JPG,pervers_compressed.wav,negative,babble_85.wav,ugle_reversed.wav,skade_reversed.wav,,,,,0,0,0,0,7,5.478457927703857,1119,001,2025-11-28_15-05-09,
196,AF21HAS.JPG,ønske_compressed.wav,positive,babble_54.wav,metal_reversed.wav,bygning_reversed.wav,,,,,0,1,1,1,6,2.195080041885376,1119,001,2025-11-28_15-05-09,
95,AF11ANS.JPG,skønhed_compressed.wav,positive,babble_62.wav,blodig_reversed.wav,koldbrand_reversed.wav,,,,,0,2,2,2,4,1.5760631561279297,1119,001,2025-11-28_15-05-09,
177,AM17ANS.JPG,SILENCE,no-prime,babble_87.wav,glæde_reversed.wav,statue_reversed.wav,,,,,0,3,3,3,2,0.9836838245391846,1119,001,2025-11-28_15-05-09,
105,AF26HAS.JPG,konkurs_compressed.wav,negative,babble_75.wav,lærer_reversed.wav,morder_reversed.wav,,,,,0,4,4,4,6,0.6064538955688477,1119,001,2025-11-28_15-05-09,
148,AM10NES.JPG,metal_compressed.wav,neutral,babble_35.wav,luksus_reversed.wav,redskab_reversed.wav,,,,,0,5,5,5,4,0.47353100776672363,1119,001,2025-11-28_15-05-09,
103,AM23HAS.JPG,voldtægt_compressed.wav,negative,babble_50.wav,natur_reversed.wav,flirte_reversed.wav,,,,,0,6,6,6,6,0.47019290924072266,1119,001,2025-11-28_15-05-09,
24,AM23NES.JPG,pude_compressed.wav,positive,babble_68.wav,smerte_reversed.wav,pervers_reversed.wav,,,,,0,7,7,7,4,1.6497118473052979,1119,001,2025-11-28_15-05-09,
145,AM33HAS.JPG,kæle_compressed.wav,positive,babble_35.wav,syndig_reversed.wav,trussel_reversed.wav,,,,,0,8,8,8,4,0.4918229579925537,1119,001,2025-11-28_15-05-09,
121,AF27HAS.JPG,afskyr_compressed.wav,negative,babble_50.wav,vindue_reversed.wav,magisk_reversed.wav,,,,,0,9,9,9,7,0.5437209606170654,1119,001,2025-11-28_15-05-09,
99,AM31ANS.JPG,hader_compressed.wav,negative,babble_65.wav,statue_reversed.wav,slagtning_reversed.wav,,,,,0,10,10,10,3,1.0419988632202148,1119,001,2025-11-28_15-05-09,
68,AM10ANS.JPG,SILENCE,no-prime,babble_10.wav,sejre_reversed.wav,skyldig_reversed.wav,,,,,0,11,11,11,1,0.883206844329834,1119,001,2025-11-28_15-05-09,
20,AF29HAS.JPG,fjendtlig_compressed.wav,negative,babble_63.wav,plakat_reversed.wav,skønhed_reversed.wav,,,,,0,12,12,12,6,0.685060977935791,1119,001,2025-11-28_15-05-09,
189,AM06NES.JPG,SILENCE,no-prime,babble_10.wav,bange_reversed.wav,dæmon_reversed.wav,,,,,0,13,13,13,4,0.6118919849395752,1119,001,2025-11-28_15-05-09,
47,AF13NES.JPG,SILENCE,no-prime,babble_8.wav,søsyg_reversed.wav,hage_reversed.wav,,,,,0,14,14,14,3,2.221798896789551,1119,001,2025-11-28_15-05-09,
197,AM25HAS.JPG,SILENCE,no-prime,babble_23.wav,putte_reversed.wav,jubel_reversed.wav,,,,,0,15,15,15,8,0.6628549098968506,1119,001,2025-11-28_15-05-09,
92,AM28ANS.JPG,fjollet_compressed.wav,positive,babble_79.wav,skyldig_reversed.wav,forpint_reversed.wav,,,,,0,16,16,16,3,0.3380758762359619,1119,001,2025-11-28_15-05-09,
66,AM01HAS.JPG,hjerte_compressed.wav,positive,babble_12.wav,ugle_reversed.wav,rabies_reversed.wav,,,,,0,17,17,17,6,0.4068319797515869,1119,001,2025-11-28_15-05-09,
14,AM14ANS.JPG,humor_compressed.wav,positive,babble_79.wav,sikker_reversed.wav,beskidt_reversed.wav,,,,,0,18,18,18,4,0.8051350116729736,1119,001,2025-11-28_15-05-09,
61,AM33ANS.JPG,brænde_compressed.wav,negative,babble_70.wav,kujon_reversed.wav,kage_reversed.wav,,,,,0,19,19,19,4,0.8825109004974365,1119,001,2025-11-28_15-05-09,
34,AF07NES.JPG,accept_compressed.wav,positive,babble_32.wav,nedbrud_reversed.wav,metal_reversed.wav,,,,,0,20,20,20,4,0.33823609352111816,1119,001,2025-11-28_15-05-09,
40,AF03NES.JPG,bryllup_compressed.wav,positive,babble_41.wav,kiste_reversed.wav,rigdom_reversed.wav,,,,,0,21,21,21,4,0.6979179382324219,1119,001,2025-11-28_15-05-09,
131,AM11NES.JPG,drukne_compressed.wav,negative,babble_34.wav,viden_reversed.wav,lyse_reversed.wav,,,,,0,22,22,22,4,4.626623153686523,1119,001,2025-11-28_15-05-09,
126,AF28HAS.JPG,kujon_compressed.wav,negative,babble_30.wav,drukne_reversed.wav,baby_reversed.wav,,,,,0,23,23,23,6,0.9555599689483643,1119,001,2025-11-28_15-05-09,
104,AM09NES.JPG,taber_compressed.wav,negative,babble_35.wav,spænding_reversed.wav,traume_reversed.wav,,,,,0,24,24,24,4,0.6971378326416016,1119,001,2025-11-28_15-05-09,
183,AF27NES.JPG,accept_compressed.wav,positive,babble_3.wav,varme_reversed.wav,vinde_reversed.wav,,,,,0,25,25,25,3,0.5115571022033691,1119,001,2025-11-28_15-05-09,
9,AF20ANS.JPG,SILENCE,no-prime,babble_99.wav,latter_reversed.wav,pjece_reversed.wav,,,,,0,26,26,26,2,0.4375419616699219,1119,001,2025-11-28_15-05-09,
36,AF24HAS.JPG,vinde_compressed.wav,positive,babble_64.wav,bombe_reversed.wav,oprørt_reversed.wav,,,,,0,27,27,27,9,0.4428520202636719,1119,001,2025-11-28_15-05-09,
89,AF34NES.JPG,modgang_compressed.wav,negative,babble_75.wav,dollar_reversed.wav,slave_reversed.wav,,,,,0,28,28,28,5,0.5637288093566895,1119,001,2025-11-28_15-05-09,
114,AM35HAS.JPG,hader_compressed.wav,negative,babble_53.wav,gidsel_reversed.wav,skyldig_reversed.wav,,,,,0,29,29,29,6,0.508430004119873,1119,001,2025-11-28_15-05-09,
118,AM28HAS.JPG,vandfald_compressed.wav,positive,babble_70.wav,ønske_reversed.wav,avis_reversed.wav,,,,,0,30,30,30,6,2.3440370559692383,1119,001,2025-11-28_15-05-09,
69,AF22HAS.JPG,SILENCE,no-prime,babble_63.wav,sygdom_reversed.wav,mave_reversed.wav,,,,,0,31,31,31,7,1.4725639820098877,1119,001,2025-11-28_15-05-09,
26,AM04NES.JPG,putte_compressed.wav,positive,babble_23.wav,genert_reversed.wav,fremskridt_reversed.wav,,,,,0,32,32,32,5,0.4154818058013916,1119,001,2025-11-28_15-05-09,
82,AF02ANS.JPG,offer_compressed.wav,negative,babble_85.wav,taxa_reversed.wav,frygtsom_reversed.wav,,,,,0,33,33,33,2,0.7649261951446533,1119,001,2025-11-28_15-05-09,
4,AF34HAS.JPG,skønhed_compressed.wav,positive,babble_7.wav,spænding_reversed.wav,kiste_reversed.wav,,,,,0,34,34,34,6,0.4884970188140869,1119,001,2025-11-28_15-05-09,
133,AM19ANS.JPG,kvæles_compressed.wav,negative,babble_12.wav,grusom_reversed.wav,respekt_reversed.wav,,,,,0,35,35,35,2,0.31882619857788086,1119,001,2025-11-28_15-05-09,
46,AF22ANS.JPG,djævel_compressed.wav,negative,babble_99.wav,sikker_reversed.wav,nøgle_reversed.wav,,,,,0,36,36,36,2,0.030462026596069336,1119,001,2025-11-28_15-05-09,
30,AF07ANS.JPG,bryllup_compressed.wav,positive,babble_41.wav,gaffel_reversed.wav,rigdom_reversed.wav,,,,,0,37,37,37,1,0.3862311840057373,1119,001,2025-11-28_15-05-09,
158,AF25ANS.JPG,forår_compressed.wav,positive,babble_57.wav,krise_reversed.wav,frygtsom_reversed.wav,,,,,0,38,38,38,2,0.42961597442626953,1119,001,2025-11-28_15-05-09,
185,AF32NES.JPG,lærer_compressed.wav,neutral,babble_42.wav,varme_reversed.wav,selvmord_reversed.wav,,,,,0,39,39,39,5,0.2433938980102539,1119,001,2025-11-28_15-05-09,
21,AF15ANS.JPG,ørken_compressed.wav,negative,babble_47.wav,kærtegn_reversed.wav,tilfreds_reversed.wav,,,,,0,40,40,40,3,0.25911688804626465,1119,001,2025-11-28_15-05-09,
138,AM13NES.JPG,ønske_compressed.wav,positive,babble_51.wav,enhed_reversed.wav,taber_reversed.wav,,,,,0,41,41,41,5,0.17095398902893066,1119,001,2025-11-28_15-05-09,
67,AF10HAS.JPG,nonne_compressed.wav,neutral,babble_7.wav,selvmord_reversed.wav,ledning_reversed.wav,,,,,0,42,42,42,6,0.2957930564880371,1119,001,2025-11-28_15-05-09,
130,AF04HAS.JPG,tortur_compressed.wav,negative,babble_33.wav,ankel_reversed.wav,nonsens_reversed.wav,,,,,0,43,43,43,6,0.1995549201965332,1119,001,2025-11-28_15-05-09,
137,AM25NES.JPG,redning_compressed.wav,positive,babble_32.wav,sexet_reversed.wav,poesi_reversed.wav,,,,,0,44,44,44,5,0.7537729740142822,1119,001,2025-11-28_15-05-09,
79,AF35NES.JPG,avis_compressed.wav,neutral,babble_38.wav,rådden_reversed.wav,skyldig_reversed.wav,,,,,0,45,45,45,4,1.0332930088043213,1119,001,2025-11-28_15-05-09,
57,AF26NES.JPG,konge_compressed.wav,positive,babble_92.wav,bygning_reversed.wav,flirte_reversed.wav,,,,,0,46,46,46,5,0.16155314445495605,1119,001,2025-11-28_15-05-09,
48,AF10ANS.JPG,kedel_compressed.wav,neutral,babble_26.wav,hånlig_reversed.wav,taxa_reversed.wav,,,,,0,47,47,47,3,0.1454629898071289,1119,001,2025-11-28_15-05-09,
193,AF01ANS.JPG,nedbrud_compressed.wav,negative,babble_85.wav,grusom_reversed.wav,enhed_reversed.wav,,,,,0,48,48,48,3,0.02804088592529297,1119,001,2025-11-28_15-05-09,
154,AM30ANS.JPG,illoyal_compressed.wav,negative,babble_39.wav,feber_reversed.wav,fedme_reversed.wav,,,,,0,49,49,49,4,0.15448808670043945,1119,001,2025-11-28_15-05-09,
195,AF32ANS.JPG,fase_compressed.wav,neutral,babble_26.wav,plakat_reversed.wav,ensom_reversed.wav,,,,,0,50,50,50,3,0.07239603996276855,1119,001,2025-11-28_15-05-09,
117,AM28NES.JPG,enhed_compressed.wav,neutral,babble_62.wav,slagtning_reversed.wav,albue_reversed.wav,,,,,0,51,51,51,5,0.26857781410217285,1119,001,2025-11-28_15-05-09,
149,AM24ANS.JPG,skuffe_compressed.wav,negative,babble_82.wav,ugle_reversed.wav,forfald_reversed.wav,,,,,0,52,52,52,2,0.40906405448913574,1119,001,2025-11-28_15-05-09,
60,AM34NES.JPG,SILENCE,no-prime,babble_68.wav,jubel_reversed.wav,væmmes_reversed.wav,,,,,0,53,53,53,3,0.2261209487915039,1119,001,2025-11-28_15-05-09,
25,AM05HAS.JPG,gidsel_compressed.wav,negative,babble_59.wav,venlig_reversed.wav,rigdom_reversed.wav,,,,,0,54,54,54,8,0.49457287788391113,1119,001,2025-11-28_15-05-09,
159,AM20NES.JPG,SILENCE,no-prime,babble_69.wav,pjece_reversed.wav,regnbue_reversed.wav,,,,,0,55,55,55,4,0.2517228126525879,1119,001,2025-11-28_15-05-09,
41,AM06ANS.JPG,skuffe_compressed.wav,negative,babble_89.wav,passion_reversed.wav,metal_reversed.wav,,,,,0,56,56,56,2,0.021915197372436523,1119,001,2025-11-28_15-05-09,
144,AF17HAS.JPG,sandhed_compressed.wav,positive,babble_30.wav,vinde_reversed.wav,mave_reversed.wav,,,,,0,57,57,57,8,0.6869850158691406,1119,001,2025-11-28_15-05-09,
31,AF09HAS.JPG,SILENCE,no-prime,babble_73.wav,nonne_reversed.wav,nedbrud_reversed.wav,,,,,0,58,58,58,6,0.24525094032287598,1119,001,2025-11-28_15-05-09,
132,AM07NES.JPG,luksus_compressed.wav,positive,babble_68.wav,feber_reversed.wav,blodig_reversed.wav,,,,,0,59,59,59,4,0.3088839054107666,1119,001,2025-11-28_15-05-09,
188,AM21HAS.JPG,opstemt_compressed.wav,positive,babble_77.wav,forkert_reversed.wav,dollar_reversed.wav,,,,,0,60,60,60,7,0.001132965087890625,1119,001,2025-11-28_15-05-09,
15,AF03ANS.JPG,konkurs_compressed.wav,negative,babble_57.wav,gade_reversed.wav,tortur_reversed.wav,,,,,0,61,61,61,3,0.16203594207763672,1119,001,2025-11-28_15-05-09,
32,AF09NES.JPG,blodig_compressed.wav,negative,babble_15.wav,maling_reversed.wav,drukne_reversed.wav,,,,,0,62,62,62,5,0.010263919830322266,1119,001,2025-11-28_15-05-09,
53,AM06HAS.JPG,fjollet_compressed.wav,positive,babble_19.wav,skuffe_reversed.wav,trofæ_reversed.wav,,,,,0,63,63,63,8,0.009418964385986328,1119,001,2025-11-28_15-05-09,
178,AM11ANS.JPG,SILENCE,no-prime,babble_82.wav,giftig_reversed.wav,søsyg_reversed.wav,,,,,0,64,64,64,3,0.0347599983215332,1119,001,2025-11-28_15-05-09,
28,AF35HAS.JPG,frihed_compressed.wav,positive,babble_16.wav,patent_reversed.wav,genert_reversed.wav,,,,,0,65,65,65,8,0.26958298683166504,1119,001,2025-11-28_15-05-09,
11,AF13ANS.JPG,SILENCE,no-prime,babble_74.wav,mester_reversed.wav,respekt_reversed.wav,,,,,0,66,66,66,3,0.18512606620788574,1119,001,2025-11-28_15-05-09,
179,AM22HAS.JPG,stjerne_compressed.wav,positive,babble_14.wav,baby_reversed.wav,pervers_reversed.wav,,,,,0,67,67,67,7,0.13941001892089844,1119,001,2025-11-28_15-05-09,
160,AM35NES.JPG,SILENCE,no-prime,babble_70.wav,selvmord_reversed.wav,ønske_reversed.wav,,,,,0,68,68,68,5,0.029008865356445312,1119,001,2025-11-28_15-05-09,
152,AM11HAS.JPG,cirkel_compressed.wav,neutral,babble_9.wav,måned_reversed.wav,accept_reversed.wav,,,,,0,69,69,69,6,0.10410308837890625,1119,001,2025-11-28_15-05-09,
187,AM32HAS.JPG,bryllup_compressed.wav,positive,babble_9.wav,stjerne_reversed.wav,succes_reversed.wav,,,,,0,70,70,70,6,0.13164591789245605,1119,001,2025-11-28_15-05-09,
78,AF21ANS.JPG,violin_compressed.wav,neutral,babble_15.wav,søsyg_reversed.wav,ledning_reversed.wav,,,,,0,71,71,71,4,0.12136507034301758,1119,001,2025-11-28_15-05-09,
108,AM02NES.JPG,frihed_compressed.wav,positive,babble_12.wav,beskidt_reversed.wav,modgang_reversed.wav,,,,,0,72,72,72,3,0.2883949279785156,1119,001,2025-11-28_15-05-09,
27,AF05ANS.JPG,skade_compressed.wav,negative,babble_33.wav,kugle_reversed.wav,beskidt_reversed.wav,,,,,0,73,73,73,3,0.07071089744567871,1119,001,2025-11-28_15-05-09,
16,AF12ANS.JPG,fiasko_compressed.wav,negative,babble_96.wav,museum_reversed.wav,banner_reversed.wav,,,,,0,74,74,74,3,0.1585848331451416,1119,001,2025-11-28_15-05-09,
62,AM32NES.JPG,sejre_compressed.wav,positive,babble_70.wav,skade_reversed.wav,spise_reversed.wav,,,,,0,75,75,75,5,0.25441598892211914,1119,001,2025-11-28_15-05-09,
5,AF19ANS.JPG,himmel_compressed.wav,positive,babble_80.wav,magisk_reversed.wav,violin_reversed.wav,,,,,0,76,76,76,3,0.16202521324157715,1119,001,2025-11-28_15-05-09,
81,AM16ANS.JPG,kujon_compressed.wav,negative,babble_56.wav,flirte_reversed.wav,forpint_reversed.wav,,,,,0,77,77,77,3,0.1541759967803955,1119,001,2025-11-28_15-05-09,
110,AM17HAS.JPG,skammel_compressed.wav,neutral,babble_15.wav,museum_reversed.wav,rotte_reversed.wav,,,,,0,78,78,78,7,0.03209400177001953,1119,001,2025-11-28_15-05-09,
23,AF04NES.JPG,SILENCE,no-prime,babble_54.wav,nøgle_reversed.wav,giftig_reversed.wav,,,,,0,79,79,79,4,0.031004905700683594,1119,001,2025-11-28_15-05-09,
55,AF08NES.JPG,SILENCE,no-prime,babble_44.wav,passion_reversed.wav,trussel_reversed.wav,,,,,0,80,80,80,4,0.10037493705749512,1119,001,2025-11-28_15-05-09,
136,AF10NES.JPG,bygning_compressed.wav,neutral,babble_11.wav,redskab_reversed.wav,søsyg_reversed.wav,,,,,0,81,81,81,4,0.0891880989074707,1119,001,2025-11-28_15-05-09,
101,AM13ANS.JPG,sikker_compressed.wav,positive,babble_80.wav,bombe_reversed.wav,affald_reversed.wav,,,,,0,82,82,82,2,0.06047391891479492,1119,001,2025-11-28_15-05-09,
124,AF33ANS.JPG,ære_compressed.wav,positive,babble_75.wav,forfald_reversed.wav,fiasko_reversed.wav,,,,,0,83,83,83,2,0.13074803352355957,1119,001,2025-11-28_15-05-09,
182,AF01HAS.JPG,slagtning_compressed.wav,negative,babble_98.wav,hjerte_reversed.wav,fiasko_reversed.wav,,,,,0,84,84,84,6,0.010516881942749023,1119,001,2025-11-28_15-05-09,
163,AM27NES.JPG,putte_compressed.wav,positive,babble_17.wav,trofæ_reversed.wav,blomstre_reversed.wav,,,,,0,85,85,85,5,0.007740974426269531,1119,001,2025-11-28_15-05-09,
139,AM32ANS.JPG,voldtægt_compressed.wav,negative,babble_55.wav,offer_reversed.wav,vinde_reversed.wav,,,,,0,86,86,86,3,0.23846006393432617,1119,001,2025-11-28_15-05-09,
135,AM15NES.JPG,brutal_compressed.wav,negative,babble_33.wav,varme_reversed.wav,lampe_reversed.wav,,,,,0,87,87,87,5,0.12285900115966797,1119,001,2025-11-28_15-05-09,
74,AF11NES.JPG,nedbrud_compressed.wav,negative,babble_88.wav,syndig_reversed.wav,spænding_reversed.wav,,,,,0,88,88,88,4,0.19951796531677246,1119,001,2025-11-28_15-05-09,
13,AF14HAS.JPG,redning_compressed.wav,positive,babble_11.wav,marked_reversed.wav,salat_reversed.wav,,,,,0,89,89,89,6,5.160655975341797,1119,001,2025-11-28_15-05-09,
38,AF19NES.JPG,forår_compressed.wav,positive,babble_59.wav,sæde_reversed.wav,banner_reversed.wav,,,,,0,90,90,90,5,4.555423021316528,1119,001,2025-11-28_15-05-09,
172,AM20HAS.JPG,ensom_compressed.wav,negative,babble_4.wav,kontor_reversed.wav,pude_reversed.wav,,,,,0,91,91,91,9,0.5476551055908203,1119,001,2025-11-28_15-05-09,
194,AM19HAS.JPG,kedel_compressed.wav,neutral,babble_13.wav,fængsel_reversed.wav,bange_reversed.wav,,,,,0,92,92,92,8,0.3352200984954834,1119,001,2025-11-28_15-05-09,
111,AM18NES.JPG,SILENCE,no-prime,babble_97.wav,grimme_reversed.wav,heldig_reversed.wav,,,,,0,93,93,93,5,0.061036109924316406,1119,001,2025-11-28_15-05-09,
88,AF33HAS.JPG,hjerte_compressed.wav,positive,babble_80.wav,kiste_reversed.wav,slagtning_reversed.wav,,,,,0,94,94,94,8,0.6395008563995361,1119,001,2025-11-28_15-05-09,
54,AF28NES.JPG,affald_compressed.wav,negative,babble_1.wav,traume_reversed.wav,rådden_reversed.wav,,,,,0,95,95,95,5,0.043131113052368164,1119,001,2025-11-28_15-05-09,
116,AM22ANS.JPG,sexet_compressed.wav,positive,babble_70.wav,genert_reversed.wav,hage_reversed.wav,,,,,0,96,96,96,4,0.3811349868774414,1119,001,2025-11-28_15-05-09,
65,AM15HAS.JPG,ugle_compressed.wav,neutral,babble_3.wav,redning_reversed.wav,ankel_reversed.wav,,,,,0,97,97,97,6,0.10842609405517578,1119,001,2025-11-28_15-05-09,
29,AM29NES.JPG,affald_compressed.wav,negative,babble_81.wav,taxa_reversed.wav,sæde_reversed.wav,,,,,0,98,98,98,5,0.007735013961791992,1119,001,2025-11-28_15-05-09,
75,AF16ANS.JPG,banner_compressed.wav,neutral,babble_45.wav,grimme_reversed.wav,blomstre_reversed.wav,,,,,0,99,99,99,4,0.025229930877685547,1119,001,2025-11-28_15-05-09,
3,AM12HAS.JPG,statue_compressed.wav,neutral,babble_3.wav,offer_reversed.wav,djævel_reversed.wav,,,,,0,100,100,100,8,0.4565250873565674,1119,001,2025-11-28_15-05-09,
167,AF06HAS.JPG,humor_compressed.wav,positive,babble_58.wav,tilfreds_reversed.wav,trussel_reversed.wav,,,,,0,101,101,101,8,0.2624530792236328,1119,001,2025-11-28_15-05-09,
169,AF19HAS.JPG,SILENCE,no-prime,babble_39.wav,fængsel_reversed.wav,voldtægt_reversed.wav,,,,,0,102,102,102,7,0.11883997917175293,1119,001,2025-11-28_15-05-09,
141,AF24NES.JPG,SILENCE,no-prime,babble_23.wav,nøgle_reversed.wav,himmel_reversed.wav,,,,,0,103,103,103,5,0.15146708488464355,1119,001,2025-11-28_15-05-09,
123,AM02ANS.JPG,sandhed_compressed.wav,positive,babble_45.wav,kande_reversed.wav,plakat_reversed.wav,,,,,0,104,104,104,3,0.023759841918945312,1119,001,2025-11-28_15-05-09,
115,AM23ANS.JPG,succes_compressed.wav,positive,babble_82.wav,heldig_reversed.wav,banner_reversed.wav,,,,,0,105,105,105,2,0.02147078514099121,1119,001,2025-11-28_15-05-09,
58,AF15NES.JPG,respekt_compressed.wav,positive,babble_56.wav,forpint_reversed.wav,jubel_reversed.wav,,,,,0,106,106,106,4,0.08635997772216797,1119,001,2025-11-28_15-05-09,
7,AM21ANS.JPG,hader_compressed.wav,negative,babble_96.wav,hjerte_reversed.wav,lampe_reversed.wav,,,,,0,107,107,107,2,0.16535711288452148,1119,001,2025-11-28_15-05-09,
33,AF30NES.JPG,fremskridt_compressed.wav,positive,babble_95.wav,hader_reversed.wav,dollar_reversed.wav,,,,,0,108,108,108,4,0.19719505310058594,1119,001,2025-11-28_15-05-09,
6,AF13HAS.JPG,SILENCE,no-prime,babble_64.wav,gaffel_reversed.wav,lampe_reversed.wav,,,,,0,109,109,109,7,0.01856398582458496,1119,001,2025-11-28_15-05-09,
37,AF18NES.JPG,brutal_compressed.wav,negative,babble_6.wav,smerte_reversed.wav,viden_reversed.wav,,,,,0,110,110,110,4,0.4972400665283203,1119,001,2025-11-28_15-05-09,
165,AF31NES.JPG,utro_compressed.wav,negative,babble_38.wav,glæde_reversed.wav,sæde_reversed.wav,,,,,0,111,111,111,4,0.5778160095214844,1119,001,2025-11-28_15-05-09,
166,AM01ANS.JPG,SILENCE,no-prime,babble_71.wav,tortur_reversed.wav,skade_reversed.wav,,,,,0,112,112,112,3,0.3367631435394287,1119,001,2025-11-28_15-05-09,
191,AF14NES.JPG,boble_compressed.wav,neutral,babble_87.wav,væmmes_reversed.wav,forkert_reversed.wav,,,,,0,113,113,113,5,0.04336094856262207,1119,001,2025-11-28_15-05-09,
63,AM15ANS.JPG,opstemt_compressed.wav,positive,babble_94.wav,smerte_reversed.wav,ankel_reversed.wav,,,,,0,114,114,114,2,0.254514217376709,1119,001,2025-11-28_15-05-09,
93,AF20NES.JPG,cirkus_compressed.wav,positive,babble_99.wav,poesi_reversed.wav,kedel_reversed.wav,,,,,0,115,115,115,5,0.042755126953125,1119,001,2025-11-28_15-05-09,
42,AF32HAS.JPG,affald_compressed.wav,negative,babble_76.wav,vinde_reversed.wav,ketchup_reversed.wav,,,,,0,116,116,116,7,0.07105302810668945,1119,001,2025-11-28_15-05-09,
140,AM34HAS.JPG,slave_compressed.wav,negative,babble_72.wav,rådden_reversed.wav,jubel_reversed.wav,,,,,0,117,117,117,8,0.1676161289215088,1119,001,2025-11-28_15-05-09,
35,AF30ANS.JPG,afvist_compressed.wav,negative,babble_79.wav,ketchup_reversed.wav,knude_reversed.wav,,,,,0,118,118,118,4,2.5996768474578857,1119,001,2025-11-28_15-05-09,
120,AF05HAS.JPG,frelser_compressed.wav,positive,babble_36.wav,hader_reversed.wav,vinde_reversed.wav,,,,,0,119,119,119,7,0.046096086502075195,1119,001,2025-11-28_15-05-09,
147,AF26ANS.JPG,venlig_compressed.wav,positive,babble_79.wav,grimme_reversed.wav,fase_reversed.wav,,,,,0,120,120,120,2,0.14372706413269043,1119,001,2025-11-28_15-05-09,
184,AM29ANS.JPG,minder_compressed.wav,positive,babble_57.wav,hjerte_reversed.wav,gaffel_reversed.wav,,,,,0,121,121,121,2,0.007213115692138672,1119,001,2025-11-28_15-05-09,
94,AF03HAS.JPG,fiasko_compressed.wav,negative,babble_3.wav,ankel_reversed.wav,forpint_reversed.wav,,,,,0,122,122,122,6,1.3884739875793457,1119,001,2025-11-28_15-05-09,
84,AF35ANS.JPG,sandhed_compressed.wav,positive,babble_22.wav,gaffel_reversed.wav,lærer_reversed.wav,,,,,0,123,123,123,2,0.4840672016143799,1119,001,2025-11-28_15-05-09,
156,AM29HAS.JPG,SILENCE,no-prime,babble_41.wav,hånlig_reversed.wav,brutal_reversed.wav,,,,,0,124,124,124,6,0.21662306785583496,1119,001,2025-11-28_15-05-09,
106,AM35ANS.JPG,cirkel_compressed.wav,neutral,babble_87.wav,himmel_reversed.wav,pude_reversed.wav,,,,,0,125,125,125,3,0.6488180160522461,1119,001,2025-11-28_15-05-09,
96,AF25NES.JPG,fjendtlig_compressed.wav,negative,babble_48.wav,knude_reversed.wav,oprørt_reversed.wav,,,,,0,126,126,126,4,0.19948387145996094,1119,001,2025-11-28_15-05-09,
77,AF06NES.JPG,sygdom_compressed.wav,negative,babble_56.wav,fængsel_reversed.wav,kande_reversed.wav,,,,,0,127,127,127,5,0.5709228515625,1119,001,2025-11-28_15-05-09,
18,AF01NES.JPG,brænde_compressed.wav,negative,babble_34.wav,traume_reversed.wav,kiste_reversed.wav,,,,,0,128,128,128,5,0.040051937103271484,1119,001,2025-11-28_15-05-09,
56,AM03HAS.JPG,bombe_compressed.wav,negative,babble_16.wav,pervers_reversed.wav,ørken_reversed.wav,,,,,0,129,129,129,7,0.4213981628417969,1119,001,2025-11-28_15-05-09,
109,AM12ANS.JPG,motor_compressed.wav,neutral,babble_81.wav,trofæ_reversed.wav,venlig_reversed.wav,,,,,0,130,130,130,3,0.037393808364868164,1119,001,2025-11-28_15-05-09,
85,AF23HAS.JPG,succes_compressed.wav,positive,babble_71.wav,skade_reversed.wav,pjece_reversed.wav,,,,,0,131,131,131,7,0.16013789176940918,1119,001,2025-11-28_15-05-09,
162,AM09HAS.JPG,slave_compressed.wav,negative,babble_91.wav,mave_reversed.wav,albue_reversed.wav,,,,,0,132,132,132,7,0.010957956314086914,1119,001,2025-11-28_15-05-09,
173,AM08ANS.JPG,vindue_compressed.wav,neutral,babble_69.wav,pjece_reversed.wav,taxa_reversed.wav,,,,,0,133,133,133,3,0.20501399040222168,1119,001,2025-11-28_15-05-09,
80,AF33NES.JPG,kærtegn_compressed.wav,positive,babble_93.wav,putte_reversed.wav,hånlig_reversed.wav,,,,,0,134,134,134,5,0.07319998741149902,1119,001,2025-11-28_15-05-09,
70,AF09ANS.JPG,oprør_compressed.wav,negative,babble_14.wav,offer_reversed.wav,leder_reversed.wav,,,,,0,135,135,135,3,0.1943368911743164,1119,001,2025-11-28_15-05-09,
72,AF17NES.JPG,nedbrud_compressed.wav,negative,babble_49.wav,latter_reversed.wav,forkert_reversed.wav,,,,,0,136,136,136,5,0.14828920364379883,1119,001,2025-11-28_15-05-09,
122,AF02NES.JPG,redning_compressed.wav,positive,babble_9.wav,passion_reversed.wav,sikker_reversed.wav,,,,,0,137,137,137,5,0.08391714096069336,1119,001,2025-11-28_15-05-09,
87,AM24NES.JPG,marked_compressed.wav,neutral,babble_3.wav,ensom_reversed.wav,ugle_reversed.wav,,,,,0,138,138,138,5,0.12720489501953125,1119,001,2025-11-28_15-05-09,
119,AM30HAS.JPG,kæle_compressed.wav,positive,babble_9.wav,borddug_reversed.wav,vinde_reversed.wav,,,,,0,139,139,139,6,1.9812970161437988,1119,001,2025-11-28_15-05-09,
91,AM26ANS.JPG,dollar_compressed.wav,positive,babble_11.wav,lærer_reversed.wav,grusom_reversed.wav,,,,,0,140,140,140,3,1.1106081008911133,1119,001,2025-11-28_15-05-09,
76,AM07ANS.JPG,morder_compressed.wav,negative,babble_61.wav,søsyg_reversed.wav,natur_reversed.wav,,,,,0,141,141,141,2,0.203078031539917,1119,001,2025-11-28_15-05-09,
134,AM16HAS.JPG,SILENCE,no-prime,babble_41.wav,kiste_reversed.wav,pjece_reversed.wav,,,,,0,142,142,142,8,0.2742171287536621,1119,001,2025-11-28_15-05-09,
125,AM18ANS.JPG,natur_compressed.wav,positive,babble_57.wav,fiasko_reversed.wav,vindue_reversed.wav,,,,,0,143,143,143,3,0.3997180461883545,1119,001,2025-11-28_15-05-09,
22,AF21NES.JPG,SILENCE,no-prime,babble_99.wav,dollar_reversed.wav,accept_reversed.wav,,,,,0,144,144,144,4,0.0018169879913330078,1119,001,2025-11-28_15-05-09,
64,AM13HAS.JPG,SILENCE,no-prime,babble_26.wav,beskidt_reversed.wav,gidsel_reversed.wav,,,,,0,145,145,145,7,0.0385589599609375,1119,001,2025-11-28_15-05-09,
12,AF12NES.JPG,accept_compressed.wav,positive,babble_89.wav,kærtegn_reversed.wav,natur_reversed.wav,,,,,0,146,146,146,5,0.049173831939697266,1119,001,2025-11-28_15-05-09,
161,AM04HAS.JPG,fjendtlig_compressed.wav,negative,babble_25.wav,salat_reversed.wav,tortur_reversed.wav,,,,,0,147,147,147,8,0.006901979446411133,1119,001,2025-11-28_15-05-09,
200,AM09ANS.JPG,mave_compressed.wav,neutral,babble_98.wav,lækker_reversed.wav,pude_reversed.wav,,,,,0,148,148,148,2,0.06966209411621094,1119,001,2025-11-28_15-05-09,
192,AM24HAS.JPG,udskud_compressed.wav,negative,babble_96.wav,marked_reversed.wav,maling_reversed.wav,,,,,0,149,149,149,8,0.04902195930480957,1119,001,2025-11-28_15-05-09,
98,AF31HAS.JPG,dæmpet_compressed.wav,neutral,babble_38.wav,genstand_reversed.wav,drukne_reversed.wav,,,,,0,150,150,150,9,0.15622496604919434,1119,001,2025-11-28_15-05-09,
49,AM27HAS.JPG,poesi_compressed.wav,neutral,babble_59.wav,krise_reversed.wav,gave_reversed.wav,,,,,0,151,151,151,7,0.01588606834411621,1119,001,2025-11-28_15-05-09,
146,AF29ANS.JPG,gaffel_compressed.wav,neutral,babble_42.wav,ugle_reversed.wav,kujon_reversed.wav,,,,,0,152,152,152,3,0.2706491947174072,1119,001,2025-11-28_15-05-09,
128,AF12HAS.JPG,museum_compressed.wav,neutral,babble_37.wav,flirte_reversed.wav,violin_reversed.wav,,,,,0,153,153,153,6,0.06380486488342285,1119,001,2025-11-28_15-05-09,
157,AF31ANS.JPG,kujon_compressed.wav,negative,babble_30.wav,respekt_reversed.wav,avis_reversed.wav,,,,,0,154,154,154,1,0.11874794960021973,1119,001,2025-11-28_15-05-09,
153,AF02HAS.JPG,mave_compressed.wav,neutral,babble_32.wav,sygdom_reversed.wav,gade_reversed.wav,,,,,0,155,155,155,9,0.058450937271118164,1119,001,2025-11-28_15-05-09,
43,AF30HAS.JPG,SILENCE,no-prime,babble_55.wav,trofæ_reversed.wav,varme_reversed.wav,,,,,0,156,156,156,9,0.34709906578063965,1119,001,2025-11-28_15-05-09,
171,AF29NES.JPG,SILENCE,no-prime,babble_73.wav,bygning_reversed.wav,sæde_reversed.wav,,,,,0,157,157,157,5,0.2137448787689209,1119,001,2025-11-28_15-05-09,
10,AF08HAS.JPG,ørken_compressed.wav,negative,babble_6.wav,røver_reversed.wav,sygdom_reversed.wav,,,,,0,158,158,158,7,0.0563509464263916,1119,001,2025-11-28_15-05-09,
102,AF07HAS.JPG,udskud_compressed.wav,negative,babble_4.wav,traume_reversed.wav,gave_reversed.wav,,,,,0,159,159,159,7,0.042291879653930664,1119,001,2025-11-28_15-05-09,
112,AM08NES.JPG,avis_compressed.wav,neutral,babble_69.wav,festlig_reversed.wav,spise_reversed.wav,,,,,0,160,160,160,5,0.2672438621520996,1119,001,2025-11-28_15-05-09,
150,AF11HAS.JPG,genert_compressed.wav,neutral,babble_24.wav,enhed_reversed.wav,brutal_reversed.wav,,,,,0,161,161,161,8,0.18649697303771973,1119,001,2025-11-28_15-05-09,
100,AF20HAS.JPG,skyldig_compressed.wav,negative,babble_42.wav,forpint_reversed.wav,kiste_reversed.wav,,,,,0,162,162,162,7,0.07127594947814941,1119,001,2025-11-28_15-05-09,
45,AF18HAS.JPG,natur_compressed.wav,positive,babble_43.wav,forfald_reversed.wav,maling_reversed.wav,,,,,0,163,163,163,8,0.36405396461486816,1119,001,2025-11-28_15-05-09,
176,AM02HAS.JPG,glæde_compressed.wav,positive,babble_25.wav,offer_reversed.wav,boble_reversed.wav,,,,,0,164,164,164,6,0.1845541000366211,1119,001,2025-11-28_15-05-09,
71,AM05ANS.JPG,SILENCE,no-prime,babble_18.wav,grusom_reversed.wav,blodig_reversed.wav,,,,,0,165,165,165,2,0.004423856735229492,1119,001,2025-11-28_15-05-09,
2,AF16HAS.JPG,penge_compressed.wav,positive,babble_17.wav,sæde_reversed.wav,vandfald_reversed.wav,,,,,0,166,166,166,5,0.2281961441040039,1119,001,2025-11-28_15-05-09,
86,AM26HAS.JPG,festlig_compressed.wav,positive,babble_41.wav,viden_reversed.wav,måned_reversed.wav,,,,,0,167,167,167,7,0.110565185546875,1119,001,2025-11-28_15-05-09,
83,AF16NES.JPG,SILENCE,no-prime,babble_88.wav,jubel_reversed.wav,sikker_reversed.wav,,,,,0,168,168,168,5,0.4857819080352783,1119,001,2025-11-28_15-05-09,
1,AM05NES.JPG,søsyg_compressed.wav,negative,babble_12.wav,stjerne_reversed.wav,slagtning_reversed.wav,,,,,0,169,169,169,5,0.1486818790435791,1119,001,2025-11-28_15-05-09,
50,AF24ANS.JPG,voldsom_compressed.wav,negative,babble_24.wav,ferie_reversed.wav,jubel_reversed.wav,,,,,0,170,170,170,4,0.3347630500793457,1119,001,2025-11-28_15-05-09,
164,AF14ANS.JPG,ankel_compressed.wav,neutral,babble_61.wav,latter_reversed.wav,redning_reversed.wav,,,,,0,171,171,171,3,0.08052206039428711,1119,001,2025-11-28_15-05-09,
181,AM08HAS.JPG,mave_compressed.wav,neutral,babble_50.wav,ensom_reversed.wav,sygdom_reversed.wav,,,,,0,172,172,172,6,0.1399550437927246,1119,001,2025-11-28_15-05-09,
142,AF15HAS.JPG,SILENCE,no-prime,babble_36.wav,banner_reversed.wav,nedbrud_reversed.wav,,,,,0,173,173,173,7,0.05908608436584473,1119,001,2025-11-28_15-05-09,
90,AM25ANS.JPG,ketchup_compressed.wav,neutral,babble_28.wav,poesi_reversed.wav,traume_reversed.wav,,,,,0,174,174,174,4,0.10493993759155273,1119,001,2025-11-28_15-05-09,
186,AF34ANS.JPG,væmmes_compressed.wav,negative,babble_78.wav,kiste_reversed.wav,violin_reversed.wav,,,,,0,175,175,175,4,0.04802393913269043,1119,001,2025-11-28_15-05-09,
199,AM26NES.JPG,trofæ_compressed.wav,positive,babble_55.wav,patent_reversed.wav,sejre_reversed.wav,,,,,0,176,176,176,5,0.15551209449768066,1119,001,2025-11-28_15-05-09,
151,AF23NES.JPG,SILENCE,no-prime,babble_9.wav,opstemt_reversed.wav,skyldig_reversed.wav,,,,,0,177,177,177,4,0.07910990715026855,1119,001,2025-11-28_15-05-09,
17,AM18HAS.JPG,penge_compressed.wav,positive,babble_27.wav,stjerne_reversed.wav,rådden_reversed.wav,,,,,0,178,178,178,7,0.07181596755981445,1119,001,2025-11-28_15-05-09,
129,AM16NES.JPG,måned_compressed.wav,neutral,babble_87.wav,plakat_reversed.wav,blodig_reversed.wav,,,,,0,179,179,179,5,0.04384589195251465,1119,001,2025-11-28_15-05-09,
107,AF18ANS.JPG,grusom_compressed.wav,negative,babble_19.wav,utro_reversed.wav,feber_reversed.wav,,,,,0,180,180,180,3,0.24930286407470703,1119,001,2025-11-28_15-05-09,
127,AF05NES.JPG,regnbue_compressed.wav,positive,babble_25.wav,gratis_reversed.wav,nøgle_reversed.wav,,,,,0,181,181,181,5,0.12244701385498047,1119,001,2025-11-28_15-05-09,
44,AM04ANS.JPG,SILENCE,no-prime,babble_37.wav,drukne_reversed.wav,genert_reversed.wav,,,,,0,182,182,182,3,0.04738903045654297,1119,001,2025-11-28_15-05-09,
155,AM20ANS.JPG,jubel_compressed.wav,positive,babble_48.wav,dæmon_reversed.wav,frihed_reversed.wav,,,,,0,183,183,183,3,0.06400418281555176,1119,001,2025-11-28_15-05-09,
51,AM22NES.JPG,flirte_compressed.wav,positive,babble_45.wav,frihed_reversed.wav,konge_reversed.wav,,,,,0,184,184,184,4,0.09810590744018555,1119,001,2025-11-28_15-05-09,
174,AF17ANS.JPG,forpint_compressed.wav,negative,babble_21.wav,accept_reversed.wav,ferie_reversed.wav,,,,,0,185,185,185,3,0.6105508804321289,1119,001,2025-11-28_15-05-09,
180,AM27ANS.JPG,hånlig_compressed.wav,negative,babble_1.wav,væmmes_reversed.wav,accept_reversed.wav,,,,,0,186,186,186,4,0.35802292823791504,1119,001,2025-11-28_15-05-09,
59,AM31HAS.JPG,beskidt_compressed.wav,negative,babble_53.wav,salat_reversed.wav,frygtsom_reversed.wav,,,,,0,187,187,187,6,0.05054783821105957,1119,001,2025-11-28_15-05-09,
97,AM01NES.JPG,fedme_compressed.wav,negative,babble_60.wav,knude_reversed.wav,poesi_reversed.wav,,,,,0,188,188,188,5,0.039649009704589844,1119,001,2025-11-28_15-05-09,
8,AM31NES.JPG,dæmon_compressed.wav,negative,babble_41.wav,finger_reversed.wav,tilfreds_reversed.wav,,,,,0,189,189,189,5,0.2809720039367676,1119,001,2025-11-28_15-05-09,
39,AM03ANS.JPG,genstand_compressed.wav,neutral,babble_8.wav,redning_reversed.wav,venlig_reversed.wav,,,,,0,190,190,190,1,0.17017698287963867,1119,001,2025-11-28_15-05-09,
73,AM19NES.JPG,SILENCE,no-prime,babble_71.wav,forfald_reversed.wav,nøgle_reversed.wav,,,,,0,191,191,191,5,0.12175512313842773,1119,001,2025-11-28_15-05-09,
198,AF27ANS.JPG,kiste_compressed.wav,negative,babble_12.wav,enhed_reversed.wav,oprørt_reversed.wav,,,,,0,192,192,192,4,0.03459906578063965,1119,001,2025-11-28_15-05-09,
52,AM17NES.JPG,slagtning_compressed.wav,negative,babble_2.wav,maling_reversed.wav,albue_reversed.wav,,,,,0,193,193,193,5,0.018224000930786133,1119,001,2025-11-28_15-05-09,
