trial_i,face_file,prime_file,prime_valence,babbling_file,mask1_file,mask2_file,practice.thisRepN,practice.thisTrialN,practice.thisN,practice.thisIndex,main.thisRepN,main.thisTrialN,main.thisN,main.thisIndex,response_key,rt,Participant ID,Session,date,
156,AF16ANS.JPG,succes_compressed.wav,positive,babble_34.wav,trofæ_reversed.wav,ledning_reversed.wav,0,0,0,0,0,-1,-1,0,2,3.507877826690674,1234,001,2025-11-28_15-21-14,
114,AM15HAS.JPG,jubel_compressed.wav,positive,babble_70.wav,brænde_reversed.wav,pude_reversed.wav,0,1,1,1,0,-1,-1,0,6,2.0176658630371094,1234,001,2025-11-28_15-21-14,
11,AF20NES.JPG,oprørt_compressed.wav,negative,babble_83.wav,lyse_reversed.wav,putte_reversed.wav,0,2,2,2,0,-1,-1,0,3,1.8024420738220215,1234,001,2025-11-28_15-21-14,
145,AM04ANS.JPG,cirkel_compressed.wav,neutral,babble_47.wav,sexet_reversed.wav,pervers_reversed.wav,0,3,3,3,0,-1,-1,0,3,1.786329984664917,1234,001,2025-11-28_15-21-14,
33,AF22ANS.JPG,SILENCE,no-prime,babble_87.wav,heldig_reversed.wav,magisk_reversed.wav,0,4,4,4,0,-1,-1,0,3,0.888110876083374,1234,001,2025-11-28_15-21-14,
78,AM28NES.JPG,væmmes_compressed.wav,negative,babble_32.wav,kontor_reversed.wav,lampe_reversed.wav,0,5,5,5,0,-1,-1,0,5,2.3680670261383057,1234,001,2025-11-28_15-21-14,
52,AF04NES.JPG,trofæ_compressed.wav,positive,babble_50.wav,boble_reversed.wav,rabies_reversed.wav,,,,,0,0,0,0,4,2.4748849868774414,1234,001,2025-11-28_15-21-14,
32,AM17ANS.JPG,SILENCE,no-prime,babble_81.wav,engel_reversed.wav,rabies_reversed.wav,,,,,0,1,1,1,6,3.2046868801116943,1234,001,2025-11-28_15-21-14,
129,AM13NES.JPG,sollys_compressed.wav,positive,babble_11.wav,sejre_reversed.wav,brænde_reversed.wav,,,,,0,2,2,2,5,0.43457984924316406,1234,001,2025-11-28_15-21-14,
182,AF04ANS.JPG,knude_compressed.wav,neutral,babble_61.wav,syndig_reversed.wav,forpint_reversed.wav,,,,,0,3,3,3,2,2.5247390270233154,1234,001,2025-11-28_15-21-14,
4,AF13ANS.JPG,nedbrud_compressed.wav,negative,babble_77.wav,redskab_reversed.wav,forkert_reversed.wav,,,,,0,4,4,4,4,1.2021899223327637,1234,001,2025-11-28_15-21-14,
183,AF07HAS.JPG,grimme_compressed.wav,negative,babble_51.wav,sæde_reversed.wav,tumor_reversed.wav,,,,,0,5,5,5,7,1.0148489475250244,1234,001,2025-11-28_15-21-14,
3,AF05HAS.JPG,SILENCE,no-prime,babble_93.wav,maling_reversed.wav,hjerte_reversed.wav,,,,,0,6,6,6,6,0.6849370002746582,1234,001,2025-11-28_15-21-14,
184,AF19NES.JPG,fedme_compressed.wav,negative,babble_9.wav,salat_reversed.wav,forkert_reversed.wav,,,,,0,7,7,7,5,0.751323938369751,1234,001,2025-11-28_15-21-14,
101,AM31NES.JPG,kæle_compressed.wav,positive,babble_79.wav,fjollet_reversed.wav,taber_reversed.wav,,,,,0,8,8,8,5,0.6825160980224609,1234,001,2025-11-28_15-21-14,
67,AM18NES.JPG,frihed_compressed.wav,positive,babble_54.wav,plakat_reversed.wav,poesi_reversed.wav,,,,,0,9,9,9,4,1.4548470973968506,1234,001,2025-11-28_15-21-14,
65,AM27HAS.JPG,mave_compressed.wav,neutral,babble_73.wav,bombe_reversed.wav,dæmon_reversed.wav,,,,,0,10,10,10,7,1.6351649761199951,1234,001,2025-11-28_15-21-14,
70,AM27ANS.JPG,magisk_compressed.wav,positive,babble_64.wav,luksus_reversed.wav,sejre_reversed.wav,,,,,0,11,11,11,3,1.4562299251556396,1234,001,2025-11-28_15-21-14,
98,AM15NES.JPG,frihed_compressed.wav,positive,babble_80.wav,krise_reversed.wav,affald_reversed.wav,,,,,0,12,12,12,6,1.8664319515228271,1234,001,2025-11-28_15-21-14,
20,AF28ANS.JPG,ærlig_compressed.wav,positive,babble_59.wav,poesi_reversed.wav,luksus_reversed.wav,,,,,0,13,13,13,3,1.1507070064544678,1234,001,2025-11-28_15-21-14,
142,AM23NES.JPG,hånlig_compressed.wav,negative,babble_65.wav,sandhed_reversed.wav,himlen_reversed.wav,,,,,0,14,14,14,4,1.253777027130127,1234,001,2025-11-28_15-21-14,
153,AM26NES.JPG,redskab_compressed.wav,neutral,babble_7.wav,sæde_reversed.wav,måned_reversed.wav,,,,,0,15,15,15,5,1.83713698387146,1234,001,2025-11-28_15-21-14,
17,AF02ANS.JPG,SILENCE,no-prime,babble_44.wav,kiste_reversed.wav,væmmes_reversed.wav,,,,,0,16,16,16,4,1.711578130722046,1234,001,2025-11-28_15-21-14,
166,AF22NES.JPG,grimme_compressed.wav,negative,babble_28.wav,lækker_reversed.wav,rabies_reversed.wav,,,,,0,17,17,17,5,2.896350860595703,1234,001,2025-11-28_15-21-14,
71,AF29ANS.JPG,knude_compressed.wav,neutral,babble_89.wav,brænde_reversed.wav,fjendtlig_reversed.wav,,,,,0,18,18,18,4,0.6778669357299805,1234,001,2025-11-28_15-21-14,
83,AM12HAS.JPG,gratis_compressed.wav,positive,babble_3.wav,fremskridt_reversed.wav,vandal_reversed.wav,,,,,0,19,19,19,8,1.0271391868591309,1234,001,2025-11-28_15-21-14,
1,AF06ANS.JPG,SILENCE,no-prime,babble_88.wav,dæmon_reversed.wav,frihed_reversed.wav,,,,,0,20,20,20,3,1.3944580554962158,1234,001,2025-11-28_15-21-14,
168,AM12ANS.JPG,modgang_compressed.wav,negative,babble_54.wav,taber_reversed.wav,kedel_reversed.wav,,,,,0,21,21,21,2,2.7811570167541504,1234,001,2025-11-28_15-21-14,
23,AF34NES.JPG,voldtægt_compressed.wav,negative,babble_83.wav,sejre_reversed.wav,fængsel_reversed.wav,,,,,0,22,22,22,2,1.2806289196014404,1234,001,2025-11-28_15-21-14,
108,AM11ANS.JPG,fjendtlig_compressed.wav,negative,babble_83.wav,spise_reversed.wav,heldig_reversed.wav,,,,,0,23,23,23,4,2.1902518272399902,1234,001,2025-11-28_15-21-14,
193,AF30HAS.JPG,sexet_compressed.wav,positive,babble_71.wav,frygtsom_reversed.wav,hader_reversed.wav,,,,,0,24,24,24,5,1.1781210899353027,1234,001,2025-11-28_15-21-14,
102,AM34ANS.JPG,SILENCE,no-prime,babble_87.wav,ketchup_reversed.wav,offer_reversed.wav,,,,,0,25,25,25,3,5.503730773925781,1234,001,2025-11-28_15-21-14,
18,AF17ANS.JPG,luksus_compressed.wav,positive,babble_15.wav,accept_reversed.wav,fedme_reversed.wav,,,,,0,26,26,26,3,1.1790988445281982,1234,001,2025-11-28_15-21-14,
195,AM32ANS.JPG,feber_compressed.wav,negative,babble_87.wav,putte_reversed.wav,koldbrand_reversed.wav,,,,,0,27,27,27,5,4.429254055023193,1234,001,2025-11-28_15-21-14,
130,AM16NES.JPG,viden_compressed.wav,positive,babble_36.wav,nonne_reversed.wav,jubel_reversed.wav,,,,,0,28,28,28,6,1.503385066986084,1234,001,2025-11-28_15-21-14,
63,AF19ANS.JPG,SILENCE,no-prime,babble_37.wav,opstemt_reversed.wav,nøgle_reversed.wav,,,,,0,29,29,29,5,2.1218810081481934,1234,001,2025-11-28_15-21-14,
25,AF15ANS.JPG,ledning_compressed.wav,neutral,babble_99.wav,slagtning_reversed.wav,ketchup_reversed.wav,,,,,0,30,30,30,6,0.6120269298553467,1234,001,2025-11-28_15-21-14,
169,AM09ANS.JPG,beundret_compressed.wav,positive,babble_10.wav,sandhed_reversed.wav,blodig_reversed.wav,,,,,0,31,31,31,1,0.7916650772094727,1234,001,2025-11-28_15-21-14,
121,AM02ANS.JPG,feber_compressed.wav,negative,babble_54.wav,gaffel_reversed.wav,forfald_reversed.wav,,,,,0,32,32,32,3,16.781626224517822,1234,001,2025-11-28_15-21-14,
181,AM03NES.JPG,SILENCE,no-prime,babble_41.wav,rigdom_reversed.wav,succes_reversed.wav,,,,,0,33,33,33,5,9.897432088851929,1234,001,2025-11-28_15-21-14,
186,AM17HAS.JPG,SILENCE,no-prime,babble_54.wav,bifald_reversed.wav,pjece_reversed.wav,,,,,0,34,34,34,8,2.0084638595581055,1234,001,2025-11-28_15-21-14,
22,AF03ANS.JPG,ferie_compressed.wav,positive,babble_55.wav,putte_reversed.wav,hjerte_reversed.wav,,,,,0,35,35,35,2,1.1130690574645996,1234,001,2025-11-28_15-21-14,
157,AF24ANS.JPG,hårnål_compressed.wav,neutral,babble_22.wav,venlig_reversed.wav,flirte_reversed.wav,,,,,0,36,36,36,4,0.8466989994049072,1234,001,2025-11-28_15-21-14,
180,AM08HAS.JPG,ledning_compressed.wav,neutral,babble_46.wav,statue_reversed.wav,hage_reversed.wav,,,,,0,37,37,37,6,1.190505027770996,1234,001,2025-11-28_15-21-14,
136,AF11NES.JPG,morder_compressed.wav,negative,babble_3.wav,himlen_reversed.wav,borddug_reversed.wav,,,,,0,38,38,38,5,1.1001310348510742,1234,001,2025-11-28_15-21-14,
176,AM24HAS.JPG,afskyr_compressed.wav,negative,babble_66.wav,baby_reversed.wav,bombe_reversed.wav,,,,,0,39,39,39,7,0.9049460887908936,1234,001,2025-11-28_15-21-14,
198,AF23ANS.JPG,SILENCE,no-prime,babble_14.wav,tilfreds_reversed.wav,misbrug_reversed.wav,,,,,0,40,40,40,4,1.7781100273132324,1234,001,2025-11-28_15-21-14,
68,AM07ANS.JPG,banner_compressed.wav,neutral,babble_70.wav,gaffel_reversed.wav,grusom_reversed.wav,,,,,0,41,41,41,2,0.2945690155029297,1234,001,2025-11-28_15-21-14,
131,AM21ANS.JPG,boble_compressed.wav,neutral,babble_91.wav,violin_reversed.wav,skuffe_reversed.wav,,,,,0,42,42,42,2,0.668874979019165,1234,001,2025-11-28_15-21-14,
85,AF32NES.JPG,fjendtlig_compressed.wav,negative,babble_81.wav,nonsens_reversed.wav,venlig_reversed.wav,,,,,0,43,43,43,5,0.8308298587799072,1234,001,2025-11-28_15-21-14,
133,AM26HAS.JPG,hånlig_compressed.wav,negative,babble_56.wav,forpint_reversed.wav,kujon_reversed.wav,,,,,0,44,44,44,7,1.512319803237915,1234,001,2025-11-28_15-21-14,
173,AM34HAS.JPG,pervers_compressed.wav,negative,babble_56.wav,skyldig_reversed.wav,væmmes_reversed.wav,,,,,0,45,45,45,6,1.3185489177703857,1234,001,2025-11-28_15-21-14,
99,AF20HAS.JPG,motor_compressed.wav,neutral,babble_1.wav,pjece_reversed.wav,giftig_reversed.wav,,,,,0,46,46,46,7,1.2805039882659912,1234,001,2025-11-28_15-21-14,
66,AF18HAS.JPG,sikker_compressed.wav,positive,babble_11.wav,søsyg_reversed.wav,plakat_reversed.wav,,,,,0,47,47,47,8,0.764646053314209,1234,001,2025-11-28_15-21-14,
58,AF22HAS.JPG,beundret_compressed.wav,positive,babble_87.wav,skuffe_reversed.wav,fase_reversed.wav,,,,,0,48,48,48,7,1.2315521240234375,1234,001,2025-11-28_15-21-14,
158,AM18HAS.JPG,boble_compressed.wav,neutral,babble_55.wav,selvmord_reversed.wav,modgang_reversed.wav,,,,,0,49,49,49,6,9.511883020401001,1234,001,2025-11-28_15-21-14,
84,AM01NES.JPG,avis_compressed.wav,neutral,babble_55.wav,ørken_reversed.wav,rotte_reversed.wav,,,,,0,50,50,50,5,3.6245288848876953,1234,001,2025-11-28_15-21-14,
163,AF32HAS.JPG,illoyal_compressed.wav,negative,babble_27.wav,latter_reversed.wav,hader_reversed.wav,,,,,0,51,51,51,8,0.651141881942749,1234,001,2025-11-28_15-21-14,
161,AM05ANS.JPG,beundret_compressed.wav,positive,babble_3.wav,voldtægt_reversed.wav,ankel_reversed.wav,,,,,0,52,52,52,4,1.102301836013794,1234,001,2025-11-28_15-21-14,
144,AF26NES.JPG,dollar_compressed.wav,positive,babble_10.wav,genert_reversed.wav,smerte_reversed.wav,,,,,0,53,53,53,5,0.49144721031188965,1234,001,2025-11-28_15-21-14,
164,AF15NES.JPG,kedel_compressed.wav,neutral,babble_44.wav,succes_reversed.wav,ledning_reversed.wav,,,,,0,54,54,54,6,1.167712926864624,1234,001,2025-11-28_15-21-14,
92,AF01ANS.JPG,djævel_compressed.wav,negative,babble_0.wav,succes_reversed.wav,kærtegn_reversed.wav,,,,,0,55,55,55,4,2.3104631900787354,1234,001,2025-11-28_15-21-14,
30,AM06NES.JPG,putte_compressed.wav,positive,babble_38.wav,gave_reversed.wav,albue_reversed.wav,,,,,0,56,56,56,5,0.5176949501037598,1234,001,2025-11-28_15-21-14,
19,AF07NES.JPG,krise_compressed.wav,negative,babble_72.wav,kedel_reversed.wav,dæmpet_reversed.wav,,,,,0,57,57,57,5,1.8551311492919922,1234,001,2025-11-28_15-21-14,
119,AF35HAS.JPG,venlig_compressed.wav,positive,babble_40.wav,luksus_reversed.wav,mave_reversed.wav,,,,,0,58,58,58,7,1.0910589694976807,1234,001,2025-11-28_15-21-14,
12,AM10NES.JPG,gratis_compressed.wav,positive,babble_46.wav,affald_reversed.wav,accept_reversed.wav,,,,,0,59,59,59,4,1.0032460689544678,1234,001,2025-11-28_15-21-14,
62,AM14NES.JPG,fængsel_compressed.wav,negative,babble_83.wav,natur_reversed.wav,ferie_reversed.wav,,,,,0,60,60,60,5,0.6605818271636963,1234,001,2025-11-28_15-21-14,
100,AF33ANS.JPG,baby_compressed.wav,positive,babble_75.wav,succes_reversed.wav,statue_reversed.wav,,,,,0,61,61,61,2,1.1966221332550049,1234,001,2025-11-28_15-21-14,
57,AF16NES.JPG,SILENCE,no-prime,babble_78.wav,mester_reversed.wav,genstand_reversed.wav,,,,,0,62,62,62,5,1.6533498764038086,1234,001,2025-11-28_15-21-14,
177,AM31HAS.JPG,viden_compressed.wav,positive,babble_27.wav,fase_reversed.wav,vandal_reversed.wav,,,,,0,63,63,63,7,0.6997160911560059,1234,001,2025-11-28_15-21-14,
49,AF09HAS.JPG,vinde_compressed.wav,positive,babble_92.wav,forpint_reversed.wav,gave_reversed.wav,,,,,0,64,64,64,8,0.7628259658813477,1234,001,2025-11-28_15-21-14,
80,AM35HAS.JPG,voldsom_compressed.wav,negative,babble_42.wav,forfald_reversed.wav,lampe_reversed.wav,,,,,0,65,65,65,7,1.1958951950073242,1234,001,2025-11-28_15-21-14,
141,AF17HAS.JPG,museum_compressed.wav,neutral,babble_83.wav,flirte_reversed.wav,kontor_reversed.wav,,,,,0,66,66,66,7,3.3319530487060547,1234,001,2025-11-28_15-21-14,
87,AM25HAS.JPG,fjollet_compressed.wav,positive,babble_43.wav,kontor_reversed.wav,nonne_reversed.wav,,,,,0,67,67,67,7,2.749850034713745,1234,001,2025-11-28_15-21-14,
178,AM20ANS.JPG,minder_compressed.wav,positive,babble_16.wav,finger_reversed.wav,sygdom_reversed.wav,,,,,0,68,68,68,3,0.9248058795928955,1234,001,2025-11-28_15-21-14,
86,AF32ANS.JPG,lækker_compressed.wav,positive,babble_62.wav,salat_reversed.wav,gave_reversed.wav,,,,,0,69,69,69,2,1.0330109596252441,1234,001,2025-11-28_15-21-14,
109,AM05NES.JPG,redning_compressed.wav,positive,babble_38.wav,røver_reversed.wav,museum_reversed.wav,,,,,0,70,70,70,3,2.957350969314575,1234,001,2025-11-28_15-21-14,
93,AF27NES.JPG,SILENCE,no-prime,babble_71.wav,pervers_reversed.wav,kedel_reversed.wav,,,,,0,71,71,71,5,22.123008966445923,1234,001,2025-11-28_15-21-14,
175,AM27NES.JPG,sexet_compressed.wav,positive,babble_23.wav,himlen_reversed.wav,redskab_reversed.wav,,,,,0,72,72,72,5,2.2806310653686523,1234,001,2025-11-28_15-21-14,
7,AF31HAS.JPG,borddug_compressed.wav,neutral,babble_95.wav,albue_reversed.wav,violin_reversed.wav,,,,,0,73,73,73,3,1.6539599895477295,1234,001,2025-11-28_15-21-14,
91,AM11HAS.JPG,SILENCE,no-prime,babble_92.wav,lyse_reversed.wav,humor_reversed.wav,,,,,0,74,74,74,7,0.7927589416503906,1234,001,2025-11-28_15-21-14,
75,AF08NES.JPG,minder_compressed.wav,positive,babble_88.wav,offer_reversed.wav,succes_reversed.wav,,,,,0,75,75,75,5,0.4035639762878418,1234,001,2025-11-28_15-21-14,
42,AM08NES.JPG,violin_compressed.wav,neutral,babble_9.wav,gave_reversed.wav,stjerne_reversed.wav,,,,,0,76,76,76,5,0.14417600631713867,1234,001,2025-11-28_15-21-14,
5,AF03NES.JPG,brutal_compressed.wav,negative,babble_6.wav,gade_reversed.wav,accept_reversed.wav,,,,,0,77,77,77,5,0.7482719421386719,1234,001,2025-11-28_15-21-14,
45,AM01HAS.JPG,gratis_compressed.wav,positive,babble_12.wav,væmmes_reversed.wav,ensom_reversed.wav,,,,,0,78,78,78,7,0.8833210468292236,1234,001,2025-11-28_15-21-14,
27,AM23HAS.JPG,gidsel_compressed.wav,negative,babble_47.wav,finger_reversed.wav,beskidt_reversed.wav,,,,,0,79,79,79,8,0.8469481468200684,1234,001,2025-11-28_15-21-14,
155,AF21ANS.JPG,oprør_compressed.wav,negative,babble_30.wav,lampe_reversed.wav,giftig_reversed.wav,,,,,0,80,80,80,2,1.5047900676727295,1234,001,2025-11-28_15-21-14,
88,AM14HAS.JPG,hånlig_compressed.wav,negative,babble_99.wav,ketchup_reversed.wav,ledning_reversed.wav,,,,,0,81,81,81,8,1.4104549884796143,1234,001,2025-11-28_15-21-14,
46,AM04HAS.JPG,røver_compressed.wav,negative,babble_32.wav,smerte_reversed.wav,fjollet_reversed.wav,,,,,0,82,82,82,7,0.7015500068664551,1234,001,2025-11-28_15-21-14,
105,AF19HAS.JPG,skønhed_compressed.wav,positive,babble_37.wav,latter_reversed.wav,papir_reversed.wav,,,,,0,83,83,83,7,0.5063478946685791,1234,001,2025-11-28_15-21-14,
38,AF35ANS.JPG,offer_compressed.wav,negative,babble_33.wav,vandal_reversed.wav,brænde_reversed.wav,,,,,0,84,84,84,3,0.7251479625701904,1234,001,2025-11-28_15-21-14,
72,AF07ANS.JPG,ærlig_compressed.wav,positive,babble_64.wav,kæle_reversed.wav,søsyg_reversed.wav,,,,,0,85,85,85,2,0.7838129997253418,1234,001,2025-11-28_15-21-14,
77,AM26ANS.JPG,SILENCE,no-prime,babble_26.wav,himlen_reversed.wav,affald_reversed.wav,,,,,0,86,86,86,3,1.2808358669281006,1234,001,2025-11-28_15-21-14,
146,AF08HAS.JPG,SILENCE,no-prime,babble_44.wav,mester_reversed.wav,taxa_reversed.wav,,,,,0,87,87,87,5,1.3772168159484863,1234,001,2025-11-28_15-21-14,
196,AF08ANS.JPG,bombe_compressed.wav,negative,babble_72.wav,latter_reversed.wav,konge_reversed.wav,,,,,0,88,88,88,4,0.6784231662750244,1234,001,2025-11-28_15-21-14,
47,AM09NES.JPG,vandal_compressed.wav,negative,babble_30.wav,leder_reversed.wav,museum_reversed.wav,,,,,0,89,89,89,3,0.710597038269043,1234,001,2025-11-28_15-21-14,
110,AM03HAS.JPG,lyse_compressed.wav,positive,babble_47.wav,vandfald_reversed.wav,talent_reversed.wav,,,,,0,90,90,90,6,1.0438010692596436,1234,001,2025-11-28_15-21-14,
10,AM25ANS.JPG,sexet_compressed.wav,positive,babble_45.wav,redning_reversed.wav,pjece_reversed.wav,,,,,0,91,91,91,4,1.4187440872192383,1234,001,2025-11-28_15-21-14,
120,AF29HAS.JPG,morder_compressed.wav,negative,babble_39.wav,grimme_reversed.wav,viden_reversed.wav,,,,,0,92,92,92,4,2.7375328540802,1234,001,2025-11-28_15-21-14,
199,AF33HAS.JPG,feber_compressed.wav,negative,babble_45.wav,fedme_reversed.wav,krise_reversed.wav,,,,,0,93,93,93,7,0.5947461128234863,1234,001,2025-11-28_15-21-14,
167,AF02NES.JPG,SILENCE,no-prime,babble_25.wav,sollys_reversed.wav,dæmon_reversed.wav,,,,,0,94,94,94,6,0.7068648338317871,1234,001,2025-11-28_15-21-14,
60,AM17NES.JPG,syndig_compressed.wav,negative,babble_55.wav,succes_reversed.wav,humor_reversed.wav,,,,,0,95,95,95,5,1.3300409317016602,1234,001,2025-11-28_15-21-14,
134,AF12HAS.JPG,taber_compressed.wav,negative,babble_4.wav,hader_reversed.wav,djævel_reversed.wav,,,,,0,96,96,96,6,0.32894301414489746,1234,001,2025-11-28_15-21-14,
40,AF01HAS.JPG,udskud_compressed.wav,negative,babble_7.wav,poesi_reversed.wav,genert_reversed.wav,,,,,0,97,97,97,7,0.13409900665283203,1234,001,2025-11-28_15-21-14,
125,AF31NES.JPG,SILENCE,no-prime,babble_63.wav,mave_reversed.wav,gidsel_reversed.wav,,,,,0,98,98,98,4,0.5327088832855225,1234,001,2025-11-28_15-21-14,
8,AF34ANS.JPG,konge_compressed.wav,positive,babble_13.wav,sygdom_reversed.wav,kugle_reversed.wav,,,,,0,99,99,99,4,0.9186520576477051,1234,001,2025-11-28_15-21-14,
16,AM19HAS.JPG,luder_compressed.wav,negative,babble_16.wav,bombe_reversed.wav,boble_reversed.wav,,,,,0,100,100,100,6,0.5804259777069092,1234,001,2025-11-28_15-21-14,
124,AF10ANS.JPG,SILENCE,no-prime,babble_22.wav,gidsel_reversed.wav,ensom_reversed.wav,,,,,0,101,101,101,2,0.2048201560974121,1234,001,2025-11-28_15-21-14,
74,AM06ANS.JPG,SILENCE,no-prime,babble_90.wav,gaffel_reversed.wav,albue_reversed.wav,,,,,0,102,102,102,3,0.49608683586120605,1234,001,2025-11-28_15-21-14,
35,AF23HAS.JPG,modgang_compressed.wav,negative,babble_86.wav,statue_reversed.wav,hånlig_reversed.wav,,,,,0,103,103,103,7,0.3122520446777344,1234,001,2025-11-28_15-21-14,
116,AM24NES.JPG,gaffel_compressed.wav,neutral,babble_0.wav,magisk_reversed.wav,kedel_reversed.wav,,,,,0,104,104,104,4,1.2804369926452637,1234,001,2025-11-28_15-21-14,
171,AF16HAS.JPG,SILENCE,no-prime,babble_89.wav,gaffel_reversed.wav,motor_reversed.wav,,,,,0,105,105,105,6,0.9577929973602295,1234,001,2025-11-28_15-21-14,
190,AF14HAS.JPG,brænde_compressed.wav,negative,babble_80.wav,papir_reversed.wav,natur_reversed.wav,,,,,0,106,106,106,6,73.84904217720032,1234,001,2025-11-28_15-21-14,
81,AM18ANS.JPG,grimme_compressed.wav,negative,babble_4.wav,giftig_reversed.wav,kage_reversed.wav,,,,,0,107,107,107,2,0.7034718990325928,1234,001,2025-11-28_15-21-14,
112,AF06NES.JPG,blomstre_compressed.wav,positive,babble_71.wav,syndig_reversed.wav,utro_reversed.wav,,,,,0,108,108,108,5,0.49784302711486816,1234,001,2025-11-28_15-21-14,
188,AM21HAS.JPG,slave_compressed.wav,negative,babble_36.wav,kæle_reversed.wav,sindssyg_reversed.wav,,,,,0,109,109,109,6,0.901602029800415,1234,001,2025-11-28_15-21-14,
79,AF17NES.JPG,taber_compressed.wav,negative,babble_13.wav,voldtægt_reversed.wav,himlen_reversed.wav,,,,,0,110,110,110,5,0.09339618682861328,1234,001,2025-11-28_15-21-14,
43,AF26HAS.JPG,utro_compressed.wav,negative,babble_50.wav,konge_reversed.wav,banner_reversed.wav,,,,,0,111,111,111,6,0.5095160007476807,1234,001,2025-11-28_15-21-14,
185,AF05ANS.JPG,grimme_compressed.wav,negative,babble_67.wav,salat_reversed.wav,vinde_reversed.wav,,,,,0,112,112,112,3,0.809222936630249,1234,001,2025-11-28_15-21-14,
122,AM29NES.JPG,redskab_compressed.wav,neutral,babble_88.wav,fjendtlig_reversed.wav,rigdom_reversed.wav,,,,,0,113,113,113,5,1.1334559917449951,1234,001,2025-11-28_15-21-14,
165,AF28HAS.JPG,sikker_compressed.wav,positive,babble_76.wav,kiste_reversed.wav,banner_reversed.wav,,,,,0,114,114,114,6,1.4332330226898193,1234,001,2025-11-28_15-21-14,
106,AF05NES.JPG,SILENCE,no-prime,babble_59.wav,syndig_reversed.wav,vindue_reversed.wav,,,,,0,115,115,115,5,1.2260589599609375,1234,001,2025-11-28_15-21-14,
34,AF27HAS.JPG,utro_compressed.wav,negative,babble_70.wav,syndig_reversed.wav,dæmpet_reversed.wav,,,,,0,116,116,116,6,1.3967969417572021,1234,001,2025-11-28_15-21-14,
14,AF10NES.JPG,kvæles_compressed.wav,negative,babble_40.wav,søsyg_reversed.wav,poesi_reversed.wav,,,,,0,117,117,117,5,1.0821950435638428,1234,001,2025-11-28_15-21-14,
152,AM32NES.JPG,SILENCE,no-prime,babble_11.wav,vinde_reversed.wav,maling_reversed.wav,,,,,0,118,118,118,5,3.9027271270751953,1234,001,2025-11-28_15-21-14,
39,AM04NES.JPG,luder_compressed.wav,negative,babble_89.wav,mave_reversed.wav,patent_reversed.wav,,,,,0,119,119,119,5,1.9723331928253174,1234,001,2025-11-28_15-21-14,
50,AF04HAS.JPG,avis_compressed.wav,neutral,babble_83.wav,ønske_reversed.wav,smerte_reversed.wav,,,,,0,120,120,120,7,2.7101879119873047,1234,001,2025-11-28_15-21-14,
64,AF13HAS.JPG,rotte_compressed.wav,negative,babble_87.wav,voldtægt_reversed.wav,dæmon_reversed.wav,,,,,0,121,121,121,7,0.7912228107452393,1234,001,2025-11-28_15-21-14,
117,AM10ANS.JPG,SILENCE,no-prime,babble_84.wav,venlig_reversed.wav,ferie_reversed.wav,,,,,0,122,122,122,2,0.6056909561157227,1234,001,2025-11-28_15-21-14,
90,AF12ANS.JPG,SILENCE,no-prime,babble_35.wav,taber_reversed.wav,diamant_reversed.wav,,,,,0,123,123,123,4,1.105931043624878,1234,001,2025-11-28_15-21-14,
147,AF34HAS.JPG,taber_compressed.wav,negative,babble_73.wav,mave_reversed.wav,diamant_reversed.wav,,,,,0,124,124,124,7,0.7828679084777832,1234,001,2025-11-28_15-21-14,
154,AM12NES.JPG,brutal_compressed.wav,negative,babble_29.wav,finger_reversed.wav,talent_reversed.wav,,,,,0,125,125,125,5,1.2341639995574951,1234,001,2025-11-28_15-21-14,
59,AM25NES.JPG,dollar_compressed.wav,positive,babble_27.wav,skammel_reversed.wav,rabies_reversed.wav,,,,,0,126,126,126,6,0.7397398948669434,1234,001,2025-11-28_15-21-14,
69,AF21HAS.JPG,SILENCE,no-prime,babble_8.wav,passion_reversed.wav,djævel_reversed.wav,,,,,0,127,127,127,8,0.7280218601226807,1234,001,2025-11-28_15-21-14,
128,AF31ANS.JPG,giftig_compressed.wav,negative,babble_83.wav,plakat_reversed.wav,rædsel_reversed.wav,,,,,0,128,128,128,2,0.6989238262176514,1234,001,2025-11-28_15-21-14,
36,AF21NES.JPG,konkurs_compressed.wav,negative,babble_78.wav,festlig_reversed.wav,boble_reversed.wav,,,,,0,129,129,129,5,0.7072300910949707,1234,001,2025-11-28_15-21-14,
15,AM19ANS.JPG,kontor_compressed.wav,neutral,babble_32.wav,ønske_reversed.wav,hjerte_reversed.wav,,,,,0,130,130,130,2,1.9015510082244873,1234,001,2025-11-28_15-21-14,
138,AM23ANS.JPG,tilfreds_compressed.wav,positive,babble_9.wav,redning_reversed.wav,grimme_reversed.wav,,,,,0,131,131,131,5,1.0791079998016357,1234,001,2025-11-28_15-21-14,
29,AF10HAS.JPG,fjollet_compressed.wav,positive,babble_20.wav,bifald_reversed.wav,blomstre_reversed.wav,,,,,0,132,132,132,6,0.6322479248046875,1234,001,2025-11-28_15-21-14,
189,AF06HAS.JPG,forår_compressed.wav,positive,babble_44.wav,gave_reversed.wav,ørken_reversed.wav,,,,,0,133,133,133,7,0.6965069770812988,1234,001,2025-11-28_15-21-14,
111,AF02HAS.JPG,blodig_compressed.wav,negative,babble_60.wav,væmmes_reversed.wav,diamant_reversed.wav,,,,,0,134,134,134,7,0.4864649772644043,1234,001,2025-11-28_15-21-14,
159,AF09ANS.JPG,fjollet_compressed.wav,positive,babble_29.wav,salat_reversed.wav,banner_reversed.wav,,,,,0,135,135,135,3,1.1516530513763428,1234,001,2025-11-28_15-21-14,
55,AF11ANS.JPG,glæde_compressed.wav,positive,babble_68.wav,gade_reversed.wav,redning_reversed.wav,,,,,0,136,136,136,5,0.5953412055969238,1234,001,2025-11-28_15-21-14,
197,AM30ANS.JPG,flirte_compressed.wav,positive,babble_66.wav,røver_reversed.wav,salat_reversed.wav,,,,,0,137,137,137,4,2.114013910293579,1234,001,2025-11-28_15-21-14,
54,AF14ANS.JPG,enhed_compressed.wav,neutral,babble_56.wav,dollar_reversed.wav,lækker_reversed.wav,,,,,0,138,138,138,2,1.163942813873291,1234,001,2025-11-28_15-21-14,
123,AM13ANS.JPG,ønske_compressed.wav,positive,babble_3.wav,statue_reversed.wav,nonne_reversed.wav,,,,,0,139,139,139,2,1.0067729949951172,1234,001,2025-11-28_15-21-14,
132,AF28NES.JPG,museum_compressed.wav,neutral,babble_1.wav,succes_reversed.wav,rædsel_reversed.wav,,,,,0,140,140,140,5,0.6980428695678711,1234,001,2025-11-28_15-21-14,
107,AF25NES.JPG,maling_compressed.wav,neutral,babble_65.wav,taber_reversed.wav,himmel_reversed.wav,,,,,0,141,141,141,4,1.2409029006958008,1234,001,2025-11-28_15-21-14,
194,AM08ANS.JPG,SILENCE,no-prime,babble_55.wav,gidsel_reversed.wav,borddug_reversed.wav,,,,,0,142,142,142,4,2.0066628456115723,1234,001,2025-11-28_15-21-14,
115,AM30NES.JPG,taxa_compressed.wav,neutral,babble_91.wav,glæde_reversed.wav,passion_reversed.wav,,,,,0,143,143,143,5,0.7500760555267334,1234,001,2025-11-28_15-21-14,
28,AF20ANS.JPG,frelser_compressed.wav,positive,babble_14.wav,succes_reversed.wav,leder_reversed.wav,,,,,0,144,144,144,4,0.7993271350860596,1234,001,2025-11-28_15-21-14,
21,AM02HAS.JPG,trussel_compressed.wav,negative,babble_49.wav,sygdom_reversed.wav,dæmon_reversed.wav,,,,,0,145,145,145,3,1.1094589233398438,1234,001,2025-11-28_15-21-14,
148,AM16ANS.JPG,lærer_compressed.wav,neutral,babble_66.wav,fjendtlig_reversed.wav,fjollet_reversed.wav,,,,,0,146,146,146,5,2.666940212249756,1234,001,2025-11-28_15-21-14,
96,AM10HAS.JPG,skade_compressed.wav,negative,babble_39.wav,utro_reversed.wav,fiasko_reversed.wav,,,,,0,147,147,147,6,0.36635518074035645,1234,001,2025-11-28_15-21-14,
95,AM33ANS.JPG,kande_compressed.wav,neutral,babble_68.wav,violin_reversed.wav,sandhed_reversed.wav,,,,,0,148,148,148,6,0.0408940315246582,1234,001,2025-11-28_15-21-14,
139,AM33NES.JPG,skuffe_compressed.wav,negative,babble_51.wav,finger_reversed.wav,traume_reversed.wav,,,,,0,149,149,149,4,0.539837121963501,1234,001,2025-11-28_15-21-14,
160,AM05HAS.JPG,frygtsom_compressed.wav,negative,babble_53.wav,blomstre_reversed.wav,bombe_reversed.wav,,,,,0,150,150,150,8,0.26444101333618164,1234,001,2025-11-28_15-21-14,
170,AM09HAS.JPG,SILENCE,no-prime,babble_39.wav,spænding_reversed.wav,oprør_reversed.wav,,,,,0,151,151,151,7,0.3595099449157715,1234,001,2025-11-28_15-21-14,
94,AM20HAS.JPG,frelser_compressed.wav,positive,babble_35.wav,utro_reversed.wav,sexet_reversed.wav,,,,,0,152,152,152,8,0.040138959884643555,1234,001,2025-11-28_15-21-14,
76,AF26ANS.JPG,magisk_compressed.wav,positive,babble_74.wav,respekt_reversed.wav,nedbrud_reversed.wav,,,,,0,153,153,153,4,0.8311591148376465,1234,001,2025-11-28_15-21-14,
179,AF33NES.JPG,fedme_compressed.wav,negative,babble_2.wav,giftig_reversed.wav,heldig_reversed.wav,,,,,0,154,154,154,4,0.9449689388275146,1234,001,2025-11-28_15-21-14,
143,AM28HAS.JPG,lampe_compressed.wav,neutral,babble_95.wav,slave_reversed.wav,vandfald_reversed.wav,,,,,0,155,155,155,8,0.22808194160461426,1234,001,2025-11-28_15-21-14,
73,AM30HAS.JPG,bange_compressed.wav,negative,babble_54.wav,kage_reversed.wav,taxa_reversed.wav,,,,,0,156,156,156,6,0.6499381065368652,1234,001,2025-11-28_15-21-14,
118,AF30NES.JPG,violin_compressed.wav,neutral,babble_96.wav,kande_reversed.wav,forfald_reversed.wav,,,,,0,157,157,157,6,0.4559798240661621,1234,001,2025-11-28_15-21-14,
37,AF25ANS.JPG,skønhed_compressed.wav,positive,babble_34.wav,hader_reversed.wav,venlig_reversed.wav,,,,,0,158,158,158,3,1.2933971881866455,1234,001,2025-11-28_15-21-14,
151,AM34NES.JPG,SILENCE,no-prime,babble_10.wav,fiasko_reversed.wav,talent_reversed.wav,,,,,0,159,159,159,2,0.45644712448120117,1234,001,2025-11-28_15-21-14,
56,AM02NES.JPG,grusom_compressed.wav,negative,babble_43.wav,oprørt_reversed.wav,utro_reversed.wav,,,,,0,160,160,160,3,1.3271191120147705,1234,001,2025-11-28_15-21-14,
149,AM31ANS.JPG,engel_compressed.wav,positive,babble_68.wav,ledning_reversed.wav,sollys_reversed.wav,,,,,0,161,161,161,4,2.012014150619507,1234,001,2025-11-28_15-21-14,
191,AM22NES.JPG,vindue_compressed.wav,neutral,babble_65.wav,bifald_reversed.wav,lærer_reversed.wav,,,,,0,162,162,162,5,0.7578978538513184,1234,001,2025-11-28_15-21-14,
61,AM03ANS.JPG,gaffel_compressed.wav,neutral,babble_84.wav,tilfreds_reversed.wav,plakat_reversed.wav,,,,,0,163,163,163,3,0.8806869983673096,1234,001,2025-11-28_15-21-14,
135,AF11HAS.JPG,ensom_compressed.wav,negative,babble_48.wav,dollar_reversed.wav,skammel_reversed.wav,,,,,0,164,164,164,6,0.19788193702697754,1234,001,2025-11-28_15-21-14,
187,AF24HAS.JPG,SILENCE,no-prime,babble_6.wav,morder_reversed.wav,sandhed_reversed.wav,,,,,0,165,165,165,9,0.3819098472595215,1234,001,2025-11-28_15-21-14,
41,AM32HAS.JPG,SILENCE,no-prime,babble_85.wav,morder_reversed.wav,tilfreds_reversed.wav,,,,,0,166,166,166,7,0.5120749473571777,1234,001,2025-11-28_15-21-14,
113,AM22ANS.JPG,illoyal_compressed.wav,negative,babble_7.wav,krise_reversed.wav,forfald_reversed.wav,,,,,0,167,167,167,4,0.30190205574035645,1234,001,2025-11-28_15-21-14,
162,AF13NES.JPG,accept_compressed.wav,positive,babble_29.wav,fedme_reversed.wav,bombe_reversed.wav,,,,,0,168,168,168,5,0.62015700340271,1234,001,2025-11-28_15-21-14,
150,AF15HAS.JPG,SILENCE,no-prime,babble_73.wav,jubel_reversed.wav,bombe_reversed.wav,,,,,0,169,169,169,7,0.010559797286987305,1234,001,2025-11-28_15-21-14,
172,AM24ANS.JPG,SILENCE,no-prime,babble_10.wav,engel_reversed.wav,opstemt_reversed.wav,,,,,0,170,170,170,5,0.8085460662841797,1234,001,2025-11-28_15-21-14,
24,AF29NES.JPG,gratis_compressed.wav,positive,babble_93.wav,plakat_reversed.wav,tumor_reversed.wav,,,,,0,171,171,171,6,0.4283568859100342,1234,001,2025-11-28_15-21-14,
97,AM15ANS.JPG,kugle_compressed.wav,neutral,babble_32.wav,putte_reversed.wav,måned_reversed.wav,,,,,0,172,172,172,4,0.26880788803100586,1234,001,2025-11-28_15-21-14,
103,AM35NES.JPG,tortur_compressed.wav,negative,babble_63.wav,marked_reversed.wav,spise_reversed.wav,,,,,0,173,173,173,5,0.2829549312591553,1234,001,2025-11-28_15-21-14,
126,AM07HAS.JPG,viden_compressed.wav,positive,babble_4.wav,ørken_reversed.wav,bombe_reversed.wav,,,,,0,174,174,174,8,0.7116339206695557,1234,001,2025-11-28_15-21-14,
2,AF18ANS.JPG,humor_compressed.wav,positive,babble_96.wav,himlen_reversed.wav,feber_reversed.wav,,,,,0,175,175,175,4,0.5029079914093018,1234,001,2025-11-28_15-21-14,
26,AF09NES.JPG,SILENCE,no-prime,babble_76.wav,dæmon_reversed.wav,spænding_reversed.wav,,,,,0,176,176,176,5,1.3635730743408203,1234,001,2025-11-28_15-21-14,
51,AM29ANS.JPG,sejre_compressed.wav,positive,babble_36.wav,statue_reversed.wav,grimme_reversed.wav,,,,,0,177,177,177,6,1.4465868473052979,1234,001,2025-11-28_15-21-14,
174,AM35ANS.JPG,spænding_compressed.wav,positive,babble_46.wav,leder_reversed.wav,putte_reversed.wav,,,,,0,178,178,178,4,1.0805320739746094,1234,001,2025-11-28_15-21-14,
82,AF27ANS.JPG,afvist_compressed.wav,negative,babble_92.wav,plakat_reversed.wav,ørken_reversed.wav,,,,,0,179,179,179,3,0.3808629512786865,1234,001,2025-11-28_15-21-14,
44,AM33HAS.JPG,sandhed_compressed.wav,positive,babble_13.wav,mave_reversed.wav,skyldig_reversed.wav,,,,,0,180,180,180,6,0.7234339714050293,1234,001,2025-11-28_15-21-14,
192,AM13HAS.JPG,sikker_compressed.wav,positive,babble_20.wav,jubel_reversed.wav,ønske_reversed.wav,,,,,0,181,181,181,7,0.05810189247131348,1234,001,2025-11-28_15-21-14,
104,AF25HAS.JPG,bryllup_compressed.wav,positive,babble_70.wav,selvmord_reversed.wav,putte_reversed.wav,,,,,0,182,182,182,7,0.22745919227600098,1234,001,2025-11-28_15-21-14,
127,AF35NES.JPG,ferie_compressed.wav,positive,babble_15.wav,papir_reversed.wav,blomstre_reversed.wav,,,,,0,183,183,183,5,1.2811939716339111,1234,001,2025-11-28_15-21-14,
6,AF12NES.JPG,luksus_compressed.wav,positive,babble_13.wav,gratis_reversed.wav,kage_reversed.wav,,,,,0,184,184,184,4,0.3790450096130371,1234,001,2025-11-28_15-21-14,
13,AF03HAS.JPG,vandfald_compressed.wav,positive,babble_32.wav,hage_reversed.wav,kiste_reversed.wav,,,,,0,185,185,185,5,0.9854438304901123,1234,001,2025-11-28_15-21-14,
137,AM21NES.JPG,mave_compressed.wav,neutral,babble_90.wav,skade_reversed.wav,viden_reversed.wav,,,,,0,186,186,186,4,0.5093839168548584,1234,001,2025-11-28_15-21-14,
48,AF01NES.JPG,baby_compressed.wav,positive,babble_70.wav,cirkel_reversed.wav,flirte_reversed.wav,,,,,0,187,187,187,5,0.6595840454101562,1234,001,2025-11-28_15-21-14,
89,AF24NES.JPG,SILENCE,no-prime,babble_72.wav,ferie_reversed.wav,feber_reversed.wav,,,,,0,188,188,188,4,0.3261909484863281,1234,001,2025-11-28_15-21-14,
9,AF30ANS.JPG,selvmord_compressed.wav,negative,babble_48.wav,bifald_reversed.wav,oprørt_reversed.wav,,,,,0,189,189,189,3,0.522892951965332,1234,001,2025-11-28_15-21-14,
200,AM28ANS.JPG,dæmon_compressed.wav,negative,babble_32.wav,sollys_reversed.wav,finger_reversed.wav,,,,,0,190,190,190,2,1.0056819915771484,1234,001,2025-11-28_15-21-14,
140,AM06HAS.JPG,blodig_compressed.wav,negative,babble_46.wav,nonne_reversed.wav,oprør_reversed.wav,,,,,0,191,191,191,7,0.5211658477783203,1234,001,2025-11-28_15-21-14,
53,AM07NES.JPG,motor_compressed.wav,neutral,babble_54.wav,morder_reversed.wav,rigdom_reversed.wav,,,,,0,192,192,192,3,1.168045997619629,1234,001,2025-11-28_15-21-14,
31,AM16HAS.JPG,stjerne_compressed.wav,positive,babble_36.wav,magisk_reversed.wav,nedbrud_reversed.wav,,,,,0,193,193,193,2,0.4094691276550293,1234,001,2025-11-28_15-21-14,
