trial_i,face_file,prime_file,prime_valence,babbling_file,mask1_file,mask2_file,practice.thisRepN,practice.thisTrialN,practice.thisN,practice.thisIndex,main.thisRepN,main.thisTrialN,main.thisN,main.thisIndex,response_key,rt,Participant ID,Session,date,
82,AF09NES.JPG,flirte_compressed.wav,positive,babble_83.wav,diamant_reversed.wav,sandhed_reversed.wav,0,0,0,0,0,-1,-1,0,5,5.129157066345215,280303,001,2025-11-17_05-00-29,
30,AM02NES.JPG,trussel_compressed.wav,negative,babble_61.wav,genert_reversed.wav,kæle_reversed.wav,0,1,1,1,0,-1,-1,0,4,2.215430974960327,280303,001,2025-11-17_05-00-29,
57,AM11ANS.JPG,venlig_compressed.wav,positive,babble_51.wav,sandhed_reversed.wav,himlen_reversed.wav,0,2,2,2,0,-1,-1,0,4,2.959904909133911,280303,001,2025-11-17_05-00-29,
23,AF23ANS.JPG,knude_compressed.wav,neutral,babble_2.wav,dæmpet_reversed.wav,affald_reversed.wav,0,3,3,3,0,-1,-1,0,3,3.3733041286468506,280303,001,2025-11-17_05-00-29,
83,AF09HAS.JPG,SILENCE,no-prime,babble_50.wav,heldig_reversed.wav,sexet_reversed.wav,0,4,4,4,0,-1,-1,0,6,3.3056440353393555,280303,001,2025-11-17_05-00-29,
47,AM21HAS.JPG,udskud_compressed.wav,negative,babble_43.wav,maling_reversed.wav,bange_reversed.wav,0,5,5,5,0,-1,-1,0,7,1.195112943649292,280303,001,2025-11-17_05-00-29,
31,AF20NES.JPG,syndig_compressed.wav,negative,babble_37.wav,sygdom_reversed.wav,traume_reversed.wav,,,,,0,0,0,0,5,2.615455150604248,280303,001,2025-11-17_05-00-29,
158,AF18HAS.JPG,smerte_compressed.wav,negative,babble_16.wav,cirkel_reversed.wav,utro_reversed.wav,,,,,0,1,1,1,9,1.125736951828003,280303,001,2025-11-17_05-00-29,
39,AF10ANS.JPG,fremskridt_compressed.wav,positive,babble_75.wav,morder_reversed.wav,marked_reversed.wav,,,,,0,2,2,2,6,1.9860100746154785,280303,001,2025-11-17_05-00-29,
172,AM20ANS.JPG,hjerte_compressed.wav,positive,babble_98.wav,baby_reversed.wav,kæle_reversed.wav,,,,,0,3,3,3,6,1.7395739555358887,280303,001,2025-11-17_05-00-29,
109,AM27ANS.JPG,slagtning_compressed.wav,negative,babble_2.wav,trofæ_reversed.wav,engel_reversed.wav,,,,,0,4,4,4,4,1.6179420948028564,280303,001,2025-11-17_05-00-29,
66,AM25ANS.JPG,gidsel_compressed.wav,negative,babble_90.wav,fedme_reversed.wav,frihed_reversed.wav,,,,,0,5,5,5,5,1.2952680587768555,280303,001,2025-11-17_05-00-29,
108,AM03HAS.JPG,lærer_compressed.wav,neutral,babble_80.wav,syndig_reversed.wav,ønske_reversed.wav,,,,,0,6,6,6,8,1.5152528285980225,280303,001,2025-11-17_05-00-29,
165,AF10HAS.JPG,pjece_compressed.wav,neutral,babble_94.wav,pjece_reversed.wav,regnbue_reversed.wav,,,,,0,7,7,7,6,1.9500727653503418,280303,001,2025-11-17_05-00-29,
84,AM10NES.JPG,nedbrud_compressed.wav,negative,babble_91.wav,museum_reversed.wav,ketchup_reversed.wav,,,,,0,8,8,8,5,3.6599230766296387,280303,001,2025-11-17_05-00-29,
148,AF06HAS.JPG,SILENCE,no-prime,babble_73.wav,mester_reversed.wav,drukne_reversed.wav,,,,,0,9,9,9,9,1.0053560733795166,280303,001,2025-11-17_05-00-29,
46,AF34NES.JPG,kiste_compressed.wav,negative,babble_64.wav,vindue_reversed.wav,sandhed_reversed.wav,,,,,0,10,10,10,4,1.4191009998321533,280303,001,2025-11-17_05-00-29,
179,AF02ANS.JPG,sindssyg_compressed.wav,negative,babble_96.wav,pervers_reversed.wav,avis_reversed.wav,,,,,0,11,11,11,5,2.264832019805908,280303,001,2025-11-17_05-00-29,
53,AM30HAS.JPG,SILENCE,no-prime,babble_51.wav,kande_reversed.wav,hage_reversed.wav,,,,,0,12,12,12,8,3.3784120082855225,280303,001,2025-11-17_05-00-29,
166,AM26HAS.JPG,udskud_compressed.wav,negative,babble_34.wav,metal_reversed.wav,borddug_reversed.wav,,,,,0,13,13,13,5,1.6977999210357666,280303,001,2025-11-17_05-00-29,
80,AF07NES.JPG,grusom_compressed.wav,negative,babble_83.wav,slagtning_reversed.wav,varme_reversed.wav,,,,,0,14,14,14,4,4.561977863311768,280303,001,2025-11-17_05-00-29,
21,AF31NES.JPG,fedme_compressed.wav,negative,babble_63.wav,hader_reversed.wav,feber_reversed.wav,,,,,0,15,15,15,5,1.3520851135253906,280303,001,2025-11-17_05-00-29,
4,AM23HAS.JPG,latter_compressed.wav,positive,babble_64.wav,ankel_reversed.wav,rædsel_reversed.wav,,,,,0,16,16,16,9,0.13125395774841309,280303,001,2025-11-17_05-00-29,
67,AM24ANS.JPG,banner_compressed.wav,neutral,babble_28.wav,gidsel_reversed.wav,lækker_reversed.wav,,,,,0,17,17,17,5,1.2258241176605225,280303,001,2025-11-17_05-00-29,
1,AM03ANS.JPG,festlig_compressed.wav,positive,babble_15.wav,bange_reversed.wav,kærtegn_reversed.wav,,,,,0,18,18,18,3,1.1374340057373047,280303,001,2025-11-17_05-00-29,
183,AF22ANS.JPG,ydmyg_compressed.wav,neutral,babble_16.wav,flirte_reversed.wav,pjece_reversed.wav,,,,,0,19,19,19,5,1.2248010635375977,280303,001,2025-11-17_05-00-29,
73,AF26ANS.JPG,dollar_compressed.wav,positive,babble_79.wav,hånlig_reversed.wav,taxa_reversed.wav,,,,,0,20,20,20,5,0.7036128044128418,280303,001,2025-11-17_05-00-29,
161,AM21ANS.JPG,slave_compressed.wav,negative,babble_56.wav,skønhed_reversed.wav,tumor_reversed.wav,,,,,0,21,21,21,5,0.900109052658081,280303,001,2025-11-17_05-00-29,
110,AF35HAS.JPG,forår_compressed.wav,positive,babble_74.wav,fjendtlig_reversed.wav,poesi_reversed.wav,,,,,0,22,22,22,9,0.4921259880065918,280303,001,2025-11-17_05-00-29,
141,AF26HAS.JPG,dollar_compressed.wav,positive,babble_12.wav,ønske_reversed.wav,skuffe_reversed.wav,,,,,0,23,23,23,9,1.7681078910827637,280303,001,2025-11-17_05-00-29,
58,AF09ANS.JPG,gave_compressed.wav,positive,babble_72.wav,kæle_reversed.wav,flirte_reversed.wav,,,,,0,24,24,24,3,2.4891889095306396,280303,001,2025-11-17_05-00-29,
42,AF24ANS.JPG,salat_compressed.wav,neutral,babble_61.wav,blodig_reversed.wav,kontor_reversed.wav,,,,,0,25,25,25,5,2.4786999225616455,280303,001,2025-11-17_05-00-29,
26,AM01NES.JPG,accept_compressed.wav,positive,babble_87.wav,tortur_reversed.wav,tumor_reversed.wav,,,,,0,26,26,26,5,0.7067539691925049,280303,001,2025-11-17_05-00-29,
22,AF32NES.JPG,regnbue_compressed.wav,positive,babble_62.wav,respekt_reversed.wav,slave_reversed.wav,,,,,0,27,27,27,5,0.9390079975128174,280303,001,2025-11-17_05-00-29,
89,AM22ANS.JPG,himmel_compressed.wav,positive,babble_59.wav,fase_reversed.wav,måned_reversed.wav,,,,,0,28,28,28,5,2.1028759479522705,280303,001,2025-11-17_05-00-29,
25,AF32HAS.JPG,SILENCE,no-prime,babble_26.wav,tumor_reversed.wav,putte_reversed.wav,,,,,0,29,29,29,9,0.09533190727233887,280303,001,2025-11-17_05-00-29,
37,AM30NES.JPG,hjerte_compressed.wav,positive,babble_69.wav,forpint_reversed.wav,trofæ_reversed.wav,,,,,0,30,30,30,5,1.4065330028533936,280303,001,2025-11-17_05-00-29,
160,AF21HAS.JPG,flirte_compressed.wav,positive,babble_50.wav,nonsens_reversed.wav,motor_reversed.wav,,,,,0,31,31,31,9,0.48861098289489746,280303,001,2025-11-17_05-00-29,
52,AF08ANS.JPG,tønde_compressed.wav,neutral,babble_51.wav,museum_reversed.wav,spænding_reversed.wav,,,,,0,32,32,32,5,0.4814419746398926,280303,001,2025-11-17_05-00-29,
173,AM11HAS.JPG,traume_compressed.wav,negative,babble_55.wav,vandal_reversed.wav,kontor_reversed.wav,,,,,0,33,33,33,9,0.7707991600036621,280303,001,2025-11-17_05-00-29,
3,AF16HAS.JPG,festlig_compressed.wav,positive,babble_83.wav,nedbrud_reversed.wav,traume_reversed.wav,,,,,0,34,34,34,5,0.9878659248352051,280303,001,2025-11-17_05-00-29,
125,AM13HAS.JPG,bifald_compressed.wav,positive,babble_55.wav,maling_reversed.wav,heldig_reversed.wav,,,,,0,35,35,35,9,1.1964571475982666,280303,001,2025-11-17_05-00-29,
114,AM33HAS.JPG,enhed_compressed.wav,neutral,babble_67.wav,redskab_reversed.wav,metal_reversed.wav,,,,,0,36,36,36,4,1.6990928649902344,280303,001,2025-11-17_05-00-29,
186,AM12NES.JPG,rigdom_compressed.wav,positive,babble_25.wav,marked_reversed.wav,gidsel_reversed.wav,,,,,0,37,37,37,6,3.5890939235687256,280303,001,2025-11-17_05-00-29,
162,AM01ANS.JPG,natur_compressed.wav,positive,babble_59.wav,skønhed_reversed.wav,nøgle_reversed.wav,,,,,0,38,38,38,5,0.45626211166381836,280303,001,2025-11-17_05-00-29,
79,AF18ANS.JPG,latter_compressed.wav,positive,babble_25.wav,mester_reversed.wav,skuffe_reversed.wav,,,,,0,39,39,39,6,0.9796130657196045,280303,001,2025-11-17_05-00-29,
193,AF03HAS.JPG,maling_compressed.wav,neutral,babble_41.wav,hånlig_reversed.wav,respekt_reversed.wav,,,,,0,40,40,40,5,1.4727909564971924,280303,001,2025-11-17_05-00-29,
6,AF05NES.JPG,sæde_compressed.wav,neutral,babble_46.wav,skønhed_reversed.wav,skyldig_reversed.wav,,,,,0,41,41,41,5,0.5375661849975586,280303,001,2025-11-17_05-00-29,
200,AM30ANS.JPG,poesi_compressed.wav,neutral,babble_65.wav,bygning_reversed.wav,kugle_reversed.wav,,,,,0,42,42,42,4,1.0474560260772705,280303,001,2025-11-17_05-00-29,
48,AF06ANS.JPG,sindssyg_compressed.wav,negative,babble_67.wav,fjollet_reversed.wav,cirkel_reversed.wav,,,,,0,43,43,43,4,0.23090505599975586,280303,001,2025-11-17_05-00-29,
2,AF24HAS.JPG,bygning_compressed.wav,neutral,babble_93.wav,tumor_reversed.wav,pude_reversed.wav,,,,,0,44,44,44,9,0.8100090026855469,280303,001,2025-11-17_05-00-29,
87,AM19NES.JPG,jubel_compressed.wav,positive,babble_36.wav,forfald_reversed.wav,offer_reversed.wav,,,,,0,45,45,45,5,1.3309237957000732,280303,001,2025-11-17_05-00-29,
182,AM32HAS.JPG,ærlig_compressed.wav,positive,babble_63.wav,kedel_reversed.wav,sejre_reversed.wav,,,,,0,46,46,46,9,1.283268928527832,280303,001,2025-11-17_05-00-29,
134,AM28NES.JPG,SILENCE,no-prime,babble_32.wav,opstemt_reversed.wav,patent_reversed.wav,,,,,0,47,47,47,5,0.9888608455657959,280303,001,2025-11-17_05-00-29,
51,AF23NES.JPG,bygning_compressed.wav,neutral,babble_85.wav,redskab_reversed.wav,forpint_reversed.wav,,,,,0,48,48,48,4,1.7467679977416992,280303,001,2025-11-17_05-00-29,
104,AM05HAS.JPG,tønde_compressed.wav,neutral,babble_2.wav,djævel_reversed.wav,koldbrand_reversed.wav,,,,,0,49,49,49,9,0.49407410621643066,280303,001,2025-11-17_05-00-29,
90,AF29NES.JPG,kage_compressed.wav,positive,babble_48.wav,lækker_reversed.wav,himmel_reversed.wav,,,,,0,50,50,50,5,0.19190692901611328,280303,001,2025-11-17_05-00-29,
81,AM14ANS.JPG,rigdom_compressed.wav,positive,babble_63.wav,ledning_reversed.wav,kande_reversed.wav,,,,,0,51,51,51,4,0.7438030242919922,280303,001,2025-11-17_05-00-29,
151,AF12HAS.JPG,mave_compressed.wav,neutral,babble_66.wav,skønhed_reversed.wav,vandal_reversed.wav,,,,,0,52,52,52,6,0.6535658836364746,280303,001,2025-11-17_05-00-29,
69,AM35NES.JPG,bange_compressed.wav,negative,babble_25.wav,fremskridt_reversed.wav,trussel_reversed.wav,,,,,0,53,53,53,6,1.7168529033660889,280303,001,2025-11-17_05-00-29,
184,AM25HAS.JPG,banner_compressed.wav,neutral,babble_14.wav,dæmon_reversed.wav,krise_reversed.wav,,,,,0,54,54,54,3,2.5706708431243896,280303,001,2025-11-17_05-00-29,
155,AM18ANS.JPG,fiasko_compressed.wav,negative,babble_27.wav,fase_reversed.wav,sæde_reversed.wav,,,,,0,55,55,55,3,2.2801930904388428,280303,001,2025-11-17_05-00-29,
7,AM05ANS.JPG,voldtægt_compressed.wav,negative,babble_37.wav,modgang_reversed.wav,hader_reversed.wav,,,,,0,56,56,56,7,0.5669147968292236,280303,001,2025-11-17_05-00-29,
178,AM02HAS.JPG,utro_compressed.wav,negative,babble_71.wav,natur_reversed.wav,dæmpet_reversed.wav,,,,,0,57,57,57,4,1.058257818222046,280303,001,2025-11-17_05-00-29,
63,AF15NES.JPG,gaffel_compressed.wav,neutral,babble_67.wav,rigdom_reversed.wav,tilfreds_reversed.wav,,,,,0,58,58,58,4,0.8501648902893066,280303,001,2025-11-17_05-00-29,
98,AM21NES.JPG,forår_compressed.wav,positive,babble_81.wav,borddug_reversed.wav,morder_reversed.wav,,,,,0,59,59,59,5,0.10701704025268555,280303,001,2025-11-17_05-00-29,
40,AM35ANS.JPG,misbrug_compressed.wav,negative,babble_85.wav,lækker_reversed.wav,ankel_reversed.wav,,,,,0,60,60,60,5,2.273974895477295,280303,001,2025-11-17_05-00-29,
5,AF14ANS.JPG,SILENCE,no-prime,babble_37.wav,kugle_reversed.wav,måned_reversed.wav,,,,,0,61,61,61,3,0.7984790802001953,280303,001,2025-11-17_05-00-29,
61,AF19HAS.JPG,søsyg_compressed.wav,negative,babble_36.wav,skønhed_reversed.wav,marked_reversed.wav,,,,,0,62,62,62,8,1.1876709461212158,280303,001,2025-11-17_05-00-29,
32,AF10NES.JPG,fedme_compressed.wav,negative,babble_72.wav,vindue_reversed.wav,fase_reversed.wav,,,,,0,63,63,63,3,2.8133127689361572,280303,001,2025-11-17_05-00-29,
68,AF27NES.JPG,ære_compressed.wav,positive,babble_55.wav,nedbrud_reversed.wav,leder_reversed.wav,,,,,0,64,64,64,4,0.8259038925170898,280303,001,2025-11-17_05-00-29,
176,AF17HAS.JPG,banner_compressed.wav,neutral,babble_84.wav,illoyal_reversed.wav,væmmes_reversed.wav,,,,,0,65,65,65,9,0.37310290336608887,280303,001,2025-11-17_05-00-29,
145,AM33NES.JPG,SILENCE,no-prime,babble_72.wav,humor_reversed.wav,voldtægt_reversed.wav,,,,,0,66,66,66,6,2.324363946914673,280303,001,2025-11-17_05-00-29,
131,AF04HAS.JPG,sexet_compressed.wav,positive,babble_51.wav,lærer_reversed.wav,selvmord_reversed.wav,,,,,0,67,67,67,7,0.38464784622192383,280303,001,2025-11-17_05-00-29,
99,AF17ANS.JPG,SILENCE,no-prime,babble_54.wav,offer_reversed.wav,talent_reversed.wav,,,,,0,68,68,68,3,0.2620368003845215,280303,001,2025-11-17_05-00-29,
136,AM27HAS.JPG,SILENCE,no-prime,babble_8.wav,vandfald_reversed.wav,heldig_reversed.wav,,,,,0,69,69,69,5,0.15451407432556152,280303,001,2025-11-17_05-00-29,
105,AF29HAS.JPG,luder_compressed.wav,negative,babble_36.wav,frihed_reversed.wav,utro_reversed.wav,,,,,0,70,70,70,8,0.4530758857727051,280303,001,2025-11-17_05-00-29,
137,AM04HAS.JPG,trofæ_compressed.wav,positive,babble_26.wav,rådden_reversed.wav,kedel_reversed.wav,,,,,0,71,71,71,6,1.474897861480713,280303,001,2025-11-17_05-00-29,
56,AF12ANS.JPG,bombe_compressed.wav,negative,babble_76.wav,tumor_reversed.wav,sygdom_reversed.wav,,,,,0,72,72,72,5,1.965257167816162,280303,001,2025-11-17_05-00-29,
140,AM06ANS.JPG,motor_compressed.wav,neutral,babble_24.wav,selvmord_reversed.wav,sejre_reversed.wav,,,,,0,73,73,73,3,0.4800710678100586,280303,001,2025-11-17_05-00-29,
11,AM07HAS.JPG,mave_compressed.wav,neutral,babble_39.wav,tortur_reversed.wav,lyse_reversed.wav,,,,,0,74,74,74,7,0.7858679294586182,280303,001,2025-11-17_05-00-29,
171,AF35ANS.JPG,SILENCE,no-prime,babble_15.wav,feber_reversed.wav,passion_reversed.wav,,,,,0,75,75,75,3,0.14914703369140625,280303,001,2025-11-17_05-00-29,
130,AM18NES.JPG,avis_compressed.wav,neutral,babble_76.wav,putte_reversed.wav,vandfald_reversed.wav,,,,,0,76,76,76,5,2.1900880336761475,280303,001,2025-11-17_05-00-29,
154,AM11NES.JPG,bifald_compressed.wav,positive,babble_41.wav,ferie_reversed.wav,bifald_reversed.wav,,,,,0,77,77,77,5,0.9572021961212158,280303,001,2025-11-17_05-00-29,
138,AM01HAS.JPG,tilfreds_compressed.wav,positive,babble_26.wav,sandhed_reversed.wav,ledning_reversed.wav,,,,,0,78,78,78,8,0.5812349319458008,280303,001,2025-11-17_05-00-29,
101,AF02HAS.JPG,SILENCE,no-prime,babble_76.wav,lampe_reversed.wav,lækker_reversed.wav,,,,,0,79,79,79,9,0.08185911178588867,280303,001,2025-11-17_05-00-29,
36,AF19ANS.JPG,sollys_compressed.wav,positive,babble_69.wav,kugle_reversed.wav,giftig_reversed.wav,,,,,0,80,80,80,5,1.9611170291900635,280303,001,2025-11-17_05-00-29,
168,AF12NES.JPG,morder_compressed.wav,negative,babble_99.wav,albue_reversed.wav,ledning_reversed.wav,,,,,0,81,81,81,4,0.2705569267272949,280303,001,2025-11-17_05-00-29,
122,AF01HAS.JPG,SILENCE,no-prime,babble_19.wav,nonne_reversed.wav,poesi_reversed.wav,,,,,0,82,82,82,7,0.13881301879882812,280303,001,2025-11-17_05-00-29,
72,AF25NES.JPG,skønhed_compressed.wav,positive,babble_20.wav,skønhed_reversed.wav,rabies_reversed.wav,,,,,0,83,83,83,4,0.49688196182250977,280303,001,2025-11-17_05-00-29,
8,AF01NES.JPG,sexet_compressed.wav,positive,babble_34.wav,søsyg_reversed.wav,motor_reversed.wav,,,,,0,84,84,84,5,0.3330659866333008,280303,001,2025-11-17_05-00-29,
103,AM32NES.JPG,forpint_compressed.wav,negative,babble_64.wav,drukne_reversed.wav,djævel_reversed.wav,,,,,0,85,85,85,4,0.7222118377685547,280303,001,2025-11-17_05-00-29,
150,AM25NES.JPG,respekt_compressed.wav,positive,babble_92.wav,bifald_reversed.wav,grusom_reversed.wav,,,,,0,86,86,86,4,1.3461289405822754,280303,001,2025-11-17_05-00-29,
19,AM18HAS.JPG,SILENCE,no-prime,babble_70.wav,konkurs_reversed.wav,gidsel_reversed.wav,,,,,0,87,87,87,7,0.3536219596862793,280303,001,2025-11-17_05-00-29,
54,AF02NES.JPG,SILENCE,no-prime,babble_4.wav,sygdom_reversed.wav,bifald_reversed.wav,,,,,0,88,88,88,5,1.3354499340057373,280303,001,2025-11-17_05-00-29,
12,AF04ANS.JPG,stjerne_compressed.wav,positive,babble_15.wav,forkert_reversed.wav,himlen_reversed.wav,,,,,0,89,89,89,3,0.42917418479919434,280303,001,2025-11-17_05-00-29,
121,AF07HAS.JPG,respekt_compressed.wav,positive,babble_26.wav,mave_reversed.wav,papir_reversed.wav,,,,,0,90,90,90,7,0.7423930168151855,280303,001,2025-11-17_05-00-29,
177,AF33ANS.JPG,SILENCE,no-prime,babble_0.wav,putte_reversed.wav,ønske_reversed.wav,,,,,0,91,91,91,2,2.9867050647735596,280303,001,2025-11-17_05-00-29,
139,AF21ANS.JPG,SILENCE,no-prime,babble_13.wav,engel_reversed.wav,fjendtlig_reversed.wav,,,,,0,92,92,92,4,0.7270581722259521,280303,001,2025-11-17_05-00-29,
15,AF34HAS.JPG,diamant_compressed.wav,positive,babble_67.wav,finger_reversed.wav,traume_reversed.wav,,,,,0,93,93,93,8,0.1148681640625,280303,001,2025-11-17_05-00-29,
132,AM02ANS.JPG,frelser_compressed.wav,positive,babble_46.wav,voldtægt_reversed.wav,kedel_reversed.wav,,,,,0,94,94,94,4,0.2341899871826172,280303,001,2025-11-17_05-00-29,
169,AM33ANS.JPG,minder_compressed.wav,positive,babble_21.wav,rædsel_reversed.wav,syndig_reversed.wav,,,,,0,95,95,95,4,0.2798459529876709,280303,001,2025-11-17_05-00-29,
157,AM04ANS.JPG,SILENCE,no-prime,babble_89.wav,illoyal_reversed.wav,grusom_reversed.wav,,,,,0,96,96,96,4,0.6853759288787842,280303,001,2025-11-17_05-00-29,
33,AM14HAS.JPG,væmmes_compressed.wav,negative,babble_8.wav,sæde_reversed.wav,sygdom_reversed.wav,,,,,0,97,97,97,9,0.230787992477417,280303,001,2025-11-17_05-00-29,
74,AF11HAS.JPG,affald_compressed.wav,negative,babble_33.wav,sikker_reversed.wav,kujon_reversed.wav,,,,,0,98,98,98,9,0.07022714614868164,280303,001,2025-11-17_05-00-29,
164,AM35HAS.JPG,kugle_compressed.wav,neutral,babble_23.wav,violin_reversed.wav,vandfald_reversed.wav,,,,,0,99,99,99,7,0.22369885444641113,280303,001,2025-11-17_05-00-29,
14,AM05NES.JPG,kvæles_compressed.wav,negative,babble_7.wav,ledning_reversed.wav,væmmes_reversed.wav,,,,,0,100,100,100,4,0.41196107864379883,280303,001,2025-11-17_05-00-29,
116,AM15NES.JPG,kæle_compressed.wav,positive,babble_66.wav,papir_reversed.wav,sindssyg_reversed.wav,,,,,0,101,101,101,4,3.0114221572875977,280303,001,2025-11-17_05-00-29,
24,AM20NES.JPG,slagtning_compressed.wav,negative,babble_65.wav,mave_reversed.wav,nonsens_reversed.wav,,,,,0,102,102,102,5,0.4944281578063965,280303,001,2025-11-17_05-00-29,
167,AM16HAS.JPG,blomstre_compressed.wav,positive,babble_12.wav,konge_reversed.wav,ørken_reversed.wav,,,,,0,103,103,103,7,0.02087688446044922,280303,001,2025-11-17_05-00-29,
76,AM22NES.JPG,modgang_compressed.wav,negative,babble_38.wav,lækker_reversed.wav,redskab_reversed.wav,,,,,0,104,104,104,5,0.6626889705657959,280303,001,2025-11-17_05-00-29,
111,AF20ANS.JPG,skyldig_compressed.wav,negative,babble_95.wav,modgang_reversed.wav,voldtægt_reversed.wav,,,,,0,105,105,105,4,1.700711965560913,280303,001,2025-11-17_05-00-29,
191,AM09HAS.JPG,feber_compressed.wav,negative,babble_80.wav,himlen_reversed.wav,dollar_reversed.wav,,,,,0,106,106,106,7,1.1176340579986572,280303,001,2025-11-17_05-00-29,
88,AF28ANS.JPG,sandhed_compressed.wav,positive,babble_37.wav,finger_reversed.wav,feber_reversed.wav,,,,,0,107,107,107,5,0.6196191310882568,280303,001,2025-11-17_05-00-29,
96,AF03NES.JPG,gidsel_compressed.wav,negative,babble_40.wav,grimme_reversed.wav,diamant_reversed.wav,,,,,0,108,108,108,5,0.952704906463623,280303,001,2025-11-17_05-00-29,
102,AM15ANS.JPG,modgang_compressed.wav,negative,babble_89.wav,fedme_reversed.wav,sejre_reversed.wav,,,,,0,109,109,109,5,1.6205201148986816,280303,001,2025-11-17_05-00-29,
129,AM17HAS.JPG,kontor_compressed.wav,neutral,babble_78.wav,natur_reversed.wav,diamant_reversed.wav,,,,,0,110,110,110,6,2.491976022720337,280303,001,2025-11-17_05-00-29,
17,AM19HAS.JPG,intim_compressed.wav,positive,babble_7.wav,talent_reversed.wav,vindue_reversed.wav,,,,,0,111,111,111,8,1.352691888809204,280303,001,2025-11-17_05-00-29,
153,AM26NES.JPG,søsyg_compressed.wav,negative,babble_73.wav,kugle_reversed.wav,hader_reversed.wav,,,,,0,112,112,112,4,1.3491718769073486,280303,001,2025-11-17_05-00-29,
71,AM12HAS.JPG,SILENCE,no-prime,babble_3.wav,viden_reversed.wav,sæde_reversed.wav,,,,,0,113,113,113,8,0.04032397270202637,280303,001,2025-11-17_05-00-29,
60,AM26ANS.JPG,SILENCE,no-prime,babble_35.wav,fiasko_reversed.wav,vindue_reversed.wav,,,,,0,114,114,114,4,1.5355219841003418,280303,001,2025-11-17_05-00-29,
70,AF20HAS.JPG,udskud_compressed.wav,negative,babble_34.wav,banner_reversed.wav,putte_reversed.wav,,,,,0,115,115,115,9,0.3675119876861572,280303,001,2025-11-17_05-00-29,
16,AM31HAS.JPG,SILENCE,no-prime,babble_97.wav,vindue_reversed.wav,ørken_reversed.wav,,,,,0,116,116,116,6,0.17176485061645508,280303,001,2025-11-17_05-00-29,
199,AM29HAS.JPG,fængsel_compressed.wav,negative,babble_91.wav,plakat_reversed.wav,tortur_reversed.wav,,,,,0,117,117,117,6,0.47662806510925293,280303,001,2025-11-17_05-00-29,
29,AF15HAS.JPG,SILENCE,no-prime,babble_1.wav,opstemt_reversed.wav,taber_reversed.wav,,,,,0,118,118,118,7,0.18323302268981934,280303,001,2025-11-17_05-00-29,
142,AF22HAS.JPG,dollar_compressed.wav,positive,babble_9.wav,magisk_reversed.wav,grusom_reversed.wav,,,,,0,119,119,119,8,2.3686389923095703,280303,001,2025-11-17_05-00-29,
174,AM24NES.JPG,frygtsom_compressed.wav,negative,babble_5.wav,humor_reversed.wav,tilfreds_reversed.wav,,,,,0,120,120,120,5,1.641265869140625,280303,001,2025-11-17_05-00-29,
123,AM31ANS.JPG,brutal_compressed.wav,negative,babble_31.wav,succes_reversed.wav,cirkel_reversed.wav,,,,,0,121,121,121,4,1.4663619995117188,280303,001,2025-11-17_05-00-29,
94,AM31NES.JPG,tilfreds_compressed.wav,positive,babble_3.wav,søsyg_reversed.wav,måned_reversed.wav,,,,,0,122,122,122,5,0.35410594940185547,280303,001,2025-11-17_05-00-29,
35,AM27NES.JPG,banner_compressed.wav,neutral,babble_49.wav,kande_reversed.wav,sæde_reversed.wav,,,,,0,123,123,123,5,1.77675199508667,280303,001,2025-11-17_05-00-29,
185,AF05ANS.JPG,nedbrud_compressed.wav,negative,babble_68.wav,lækker_reversed.wav,vinde_reversed.wav,,,,,0,124,124,124,4,1.2288060188293457,280303,001,2025-11-17_05-00-29,
190,AF33HAS.JPG,SILENCE,no-prime,babble_22.wav,natur_reversed.wav,stjerne_reversed.wav,,,,,0,125,125,125,4,0.5763859748840332,280303,001,2025-11-17_05-00-29,
34,AM34ANS.JPG,pude_compressed.wav,positive,babble_44.wav,papir_reversed.wav,grimme_reversed.wav,,,,,0,126,126,126,5,1.0694379806518555,280303,001,2025-11-17_05-00-29,
10,AM28HAS.JPG,trofæ_compressed.wav,positive,babble_8.wav,blodig_reversed.wav,skade_reversed.wav,,,,,0,127,127,127,6,0.9125561714172363,280303,001,2025-11-17_05-00-29,
62,AM29ANS.JPG,djævel_compressed.wav,negative,babble_14.wav,smerte_reversed.wav,selvmord_reversed.wav,,,,,0,128,128,128,4,1.441420078277588,280303,001,2025-11-17_05-00-29,
124,AF30ANS.JPG,blodig_compressed.wav,negative,babble_63.wav,boble_reversed.wav,kedel_reversed.wav,,,,,0,129,129,129,4,0.8910479545593262,280303,001,2025-11-17_05-00-29,
189,AF13ANS.JPG,SILENCE,no-prime,babble_40.wav,måned_reversed.wav,sindssyg_reversed.wav,,,,,0,130,130,130,5,0.5309691429138184,280303,001,2025-11-17_05-00-29,
43,AM16ANS.JPG,trofæ_compressed.wav,positive,babble_79.wav,kontor_reversed.wav,violin_reversed.wav,,,,,0,131,131,131,5,0.8254530429840088,280303,001,2025-11-17_05-00-29,
41,AF06NES.JPG,lærer_compressed.wav,neutral,babble_73.wav,mester_reversed.wav,plakat_reversed.wav,,,,,0,132,132,132,5,0.5837328433990479,280303,001,2025-11-17_05-00-29,
180,AM07NES.JPG,SILENCE,no-prime,babble_30.wav,oprørt_reversed.wav,gaffel_reversed.wav,,,,,0,133,133,133,5,0.21535205841064453,280303,001,2025-11-17_05-00-29,
75,AM09NES.JPG,natur_compressed.wav,positive,babble_96.wav,hage_reversed.wav,lækker_reversed.wav,,,,,0,134,134,134,5,0.8167281150817871,280303,001,2025-11-17_05-00-29,
196,AF04NES.JPG,SILENCE,no-prime,babble_48.wav,hader_reversed.wav,trofæ_reversed.wav,,,,,0,135,135,135,5,3.677968978881836,280303,001,2025-11-17_05-00-29,
77,AF33NES.JPG,slagtning_compressed.wav,negative,babble_58.wav,kedel_reversed.wav,pude_reversed.wav,,,,,0,136,136,136,4,0.44864988327026367,280303,001,2025-11-17_05-00-29,
27,AF18NES.JPG,forpint_compressed.wav,negative,babble_91.wav,forfald_reversed.wav,plakat_reversed.wav,,,,,0,137,137,137,5,0.3656020164489746,280303,001,2025-11-17_05-00-29,
85,AF13NES.JPG,SILENCE,no-prime,babble_19.wav,tortur_reversed.wav,ledning_reversed.wav,,,,,0,138,138,138,5,1.6531870365142822,280303,001,2025-11-17_05-00-29,
197,AM13ANS.JPG,SILENCE,no-prime,babble_35.wav,himmel_reversed.wav,beskidt_reversed.wav,,,,,0,139,139,139,4,1.0592219829559326,280303,001,2025-11-17_05-00-29,
144,AF28NES.JPG,jubel_compressed.wav,positive,babble_9.wav,knude_reversed.wav,maling_reversed.wav,,,,,0,140,140,140,5,0.9754900932312012,280303,001,2025-11-17_05-00-29,
93,AM32ANS.JPG,SILENCE,no-prime,babble_92.wav,illoyal_reversed.wav,natur_reversed.wav,,,,,0,141,141,141,5,0.3699460029602051,280303,001,2025-11-17_05-00-29,
119,AF07ANS.JPG,morder_compressed.wav,negative,babble_94.wav,sandhed_reversed.wav,bifald_reversed.wav,,,,,0,142,142,142,4,0.35587191581726074,280303,001,2025-11-17_05-00-29,
159,AF01ANS.JPG,glæde_compressed.wav,positive,babble_20.wav,gave_reversed.wav,oprørt_reversed.wav,,,,,0,143,143,143,5,0.7904489040374756,280303,001,2025-11-17_05-00-29,
127,AM07ANS.JPG,rådden_compressed.wav,negative,babble_60.wav,rabies_reversed.wav,hader_reversed.wav,,,,,0,144,144,144,5,0.7774710655212402,280303,001,2025-11-17_05-00-29,
198,AM06HAS.JPG,tortur_compressed.wav,negative,babble_24.wav,morder_reversed.wav,oprørt_reversed.wav,,,,,0,145,145,145,8,0.5092568397521973,280303,001,2025-11-17_05-00-29,
188,AM04NES.JPG,skyldig_compressed.wav,negative,babble_81.wav,kærtegn_reversed.wav,maling_reversed.wav,,,,,0,146,146,146,5,0.7761399745941162,280303,001,2025-11-17_05-00-29,
175,AF14HAS.JPG,museum_compressed.wav,neutral,babble_90.wav,heldig_reversed.wav,blomstre_reversed.wav,,,,,0,147,147,147,7,0.16579198837280273,280303,001,2025-11-17_05-00-29,
152,AF11NES.JPG,varme_compressed.wav,positive,babble_54.wav,drukne_reversed.wav,flirte_reversed.wav,,,,,0,148,148,148,5,0.19076800346374512,280303,001,2025-11-17_05-00-29,
133,AF08NES.JPG,pjece_compressed.wav,neutral,babble_93.wav,tumor_reversed.wav,himlen_reversed.wav,,,,,0,149,149,149,5,0.08272004127502441,280303,001,2025-11-17_05-00-29,
149,AM14NES.JPG,taxa_compressed.wav,neutral,babble_34.wav,viden_reversed.wav,grimme_reversed.wav,,,,,0,150,150,150,5,0.6324501037597656,280303,001,2025-11-17_05-00-29,
163,AF27HAS.JPG,bifald_compressed.wav,positive,babble_6.wav,vandal_reversed.wav,ferie_reversed.wav,,,,,0,151,151,151,7,0.16108107566833496,280303,001,2025-11-17_05-00-29,
50,AF28HAS.JPG,leder_compressed.wav,positive,babble_93.wav,lampe_reversed.wav,skammel_reversed.wav,,,,,0,152,152,152,7,0.5486299991607666,280303,001,2025-11-17_05-00-29,
170,AM13NES.JPG,sindssyg_compressed.wav,negative,babble_1.wav,stjerne_reversed.wav,tilfreds_reversed.wav,,,,,0,153,153,153,5,0.31387901306152344,280303,001,2025-11-17_05-00-29,
91,AM23ANS.JPG,cirkel_compressed.wav,neutral,babble_76.wav,statue_reversed.wav,slagtning_reversed.wav,,,,,0,154,154,154,5,1.8120977878570557,280303,001,2025-11-17_05-00-29,
97,AM23NES.JPG,stjerne_compressed.wav,positive,babble_7.wav,blodig_reversed.wav,plakat_reversed.wav,,,,,0,155,155,155,5,0.3662409782409668,280303,001,2025-11-17_05-00-29,
195,AF16NES.JPG,kiste_compressed.wav,negative,babble_97.wav,leder_reversed.wav,kiste_reversed.wav,,,,,0,156,156,156,5,1.4038021564483643,280303,001,2025-11-17_05-00-29,
147,AM19ANS.JPG,ferie_compressed.wav,positive,babble_97.wav,tilfreds_reversed.wav,ferie_reversed.wav,,,,,0,157,157,157,5,0.8639190196990967,280303,001,2025-11-17_05-00-29,
38,AF23HAS.JPG,morder_compressed.wav,negative,babble_88.wav,fremskridt_reversed.wav,gaffel_reversed.wav,,,,,0,158,158,158,6,0.9028580188751221,280303,001,2025-11-17_05-00-29,
55,AM06NES.JPG,gaffel_compressed.wav,neutral,babble_34.wav,tortur_reversed.wav,skade_reversed.wav,,,,,0,159,159,159,5,0.589061975479126,280303,001,2025-11-17_05-00-29,
45,AM22HAS.JPG,hånlig_compressed.wav,negative,babble_61.wav,skuffe_reversed.wav,måned_reversed.wav,,,,,0,160,160,160,8,0.5564320087432861,280303,001,2025-11-17_05-00-29,
187,AM03NES.JPG,kage_compressed.wav,positive,babble_24.wav,respekt_reversed.wav,leder_reversed.wav,,,,,0,161,161,161,6,0.6020920276641846,280303,001,2025-11-17_05-00-29,
64,AF21NES.JPG,affald_compressed.wav,negative,babble_65.wav,salat_reversed.wav,dæmon_reversed.wav,,,,,0,162,162,162,6,0.2953000068664551,280303,001,2025-11-17_05-00-29,
95,AF35NES.JPG,motor_compressed.wav,neutral,babble_16.wav,genstand_reversed.wav,passion_reversed.wav,,,,,0,163,163,163,5,0.7054879665374756,280303,001,2025-11-17_05-00-29,
156,AM29NES.JPG,respekt_compressed.wav,positive,babble_61.wav,marked_reversed.wav,ledning_reversed.wav,,,,,0,164,164,164,5,2.771852970123291,280303,001,2025-11-17_05-00-29,
92,AM17ANS.JPG,salat_compressed.wav,neutral,babble_6.wav,slave_reversed.wav,heldig_reversed.wav,,,,,0,165,165,165,4,1.1488778591156006,280303,001,2025-11-17_05-00-29,
112,AF32ANS.JPG,taber_compressed.wav,negative,babble_34.wav,heldig_reversed.wav,papir_reversed.wav,,,,,0,166,166,166,5,0.5838780403137207,280303,001,2025-11-17_05-00-29,
28,AM17NES.JPG,fremskridt_compressed.wav,positive,babble_75.wav,ønske_reversed.wav,plakat_reversed.wav,,,,,0,167,167,167,5,1.501999855041504,280303,001,2025-11-17_05-00-29,
118,AF26NES.JPG,konkurs_compressed.wav,negative,babble_69.wav,engel_reversed.wav,maling_reversed.wav,,,,,0,168,168,168,5,0.5073130130767822,280303,001,2025-11-17_05-00-29,
44,AF03ANS.JPG,SILENCE,no-prime,babble_9.wav,grusom_reversed.wav,kærtegn_reversed.wav,,,,,0,169,169,169,4,1.092785120010376,280303,001,2025-11-17_05-00-29,
49,AF22NES.JPG,grusom_compressed.wav,negative,babble_76.wav,nedbrud_reversed.wav,sexet_reversed.wav,,,,,0,170,170,170,5,0.3700578212738037,280303,001,2025-11-17_05-00-29,
128,AM20HAS.JPG,SILENCE,no-prime,babble_93.wav,fedme_reversed.wav,bombe_reversed.wav,,,,,0,171,171,171,6,0.38865017890930176,280303,001,2025-11-17_05-00-29,
78,AM08HAS.JPG,enhed_compressed.wav,neutral,babble_63.wav,statue_reversed.wav,kæle_reversed.wav,,,,,0,172,172,172,5,0.9620480537414551,280303,001,2025-11-17_05-00-29,
100,AF34ANS.JPG,SILENCE,no-prime,babble_72.wav,forpint_reversed.wav,vandal_reversed.wav,,,,,0,173,173,173,5,0.21452713012695312,280303,001,2025-11-17_05-00-29,
117,AF15ANS.JPG,rotte_compressed.wav,negative,babble_8.wav,festlig_reversed.wav,brutal_reversed.wav,,,,,0,174,174,174,4,0.8063449859619141,280303,001,2025-11-17_05-00-29,
192,AM34HAS.JPG,konkurs_compressed.wav,negative,babble_67.wav,skuffe_reversed.wav,ferie_reversed.wav,,,,,0,175,175,175,4,0.9267101287841797,280303,001,2025-11-17_05-00-29,
194,AM10HAS.JPG,SILENCE,no-prime,babble_83.wav,skønhed_reversed.wav,diamant_reversed.wav,,,,,0,176,176,176,4,1.3692660331726074,280303,001,2025-11-17_05-00-29,
9,AF31HAS.JPG,musik_compressed.wav,positive,babble_45.wav,spise_reversed.wav,kage_reversed.wav,,,,,0,177,177,177,4,0.8512701988220215,280303,001,2025-11-17_05-00-29,
20,AM12ANS.JPG,kærtegn_compressed.wav,positive,babble_90.wav,lækker_reversed.wav,humor_reversed.wav,,,,,0,178,178,178,4,0.18582606315612793,280303,001,2025-11-17_05-00-29,
106,AF24NES.JPG,pervers_compressed.wav,negative,babble_85.wav,nonsens_reversed.wav,lyse_reversed.wav,,,,,0,179,179,179,5,0.3681929111480713,280303,001,2025-11-17_05-00-29,
86,AF30HAS.JPG,natur_compressed.wav,positive,babble_88.wav,putte_reversed.wav,natur_reversed.wav,,,,,0,180,180,180,6,1.0518889427185059,280303,001,2025-11-17_05-00-29,
115,AF25HAS.JPG,stjerne_compressed.wav,positive,babble_60.wav,voldtægt_reversed.wav,sikker_reversed.wav,,,,,0,181,181,181,9,0.9431869983673096,280303,001,2025-11-17_05-00-29,
59,AF08HAS.JPG,SILENCE,no-prime,babble_88.wav,salat_reversed.wav,natur_reversed.wav,,,,,0,182,182,182,7,0.262876033782959,280303,001,2025-11-17_05-00-29,
135,AF25ANS.JPG,kugle_compressed.wav,neutral,babble_92.wav,trussel_reversed.wav,frygtsom_reversed.wav,,,,,0,183,183,183,5,1.10182785987854,280303,001,2025-11-17_05-00-29,
18,AF13HAS.JPG,voldtægt_compressed.wav,negative,babble_20.wav,forkert_reversed.wav,putte_reversed.wav,,,,,0,184,184,184,4,0.3779270648956299,280303,001,2025-11-17_05-00-29,
181,AF31ANS.JPG,frygtsom_compressed.wav,negative,babble_85.wav,avis_reversed.wav,oprør_reversed.wav,,,,,0,185,185,185,4,0.35148191452026367,280303,001,2025-11-17_05-00-29,
120,AM34NES.JPG,ærlig_compressed.wav,positive,babble_83.wav,redskab_reversed.wav,affald_reversed.wav,,,,,0,186,186,186,4,1.9702141284942627,280303,001,2025-11-17_05-00-29,
126,AM10ANS.JPG,ære_compressed.wav,positive,babble_78.wav,latter_reversed.wav,forkert_reversed.wav,,,,,0,187,187,187,5,0.5628979206085205,280303,001,2025-11-17_05-00-29,
65,AF19NES.JPG,oprørt_compressed.wav,negative,babble_2.wav,krise_reversed.wav,ankel_reversed.wav,,,,,0,188,188,188,5,0.511328935623169,280303,001,2025-11-17_05-00-29,
107,AF27ANS.JPG,tortur_compressed.wav,negative,babble_23.wav,redskab_reversed.wav,beskidt_reversed.wav,,,,,0,189,189,189,4,0.2713189125061035,280303,001,2025-11-17_05-00-29,
13,AM08NES.JPG,drukne_compressed.wav,negative,babble_94.wav,syndig_reversed.wav,bygning_reversed.wav,,,,,0,190,190,190,5,0.2506601810455322,280303,001,2025-11-17_05-00-29,
146,AF30NES.JPG,gratis_compressed.wav,positive,babble_17.wav,smerte_reversed.wav,ugle_reversed.wav,,,,,0,191,191,191,5,0.6974470615386963,280303,001,2025-11-17_05-00-29,
143,AF17NES.JPG,SILENCE,no-prime,babble_44.wav,bombe_reversed.wav,rådden_reversed.wav,,,,,0,192,192,192,5,0.4649689197540283,280303,001,2025-11-17_05-00-29,
113,AM28ANS.JPG,røver_compressed.wav,negative,babble_34.wav,nøgle_reversed.wav,enhed_reversed.wav,,,,,0,193,193,193,5,2.0966498851776123,280303,001,2025-11-17_05-00-29,
