trial_i,face_file,prime_file,prime_valence,babbling_file,mask1_file,mask2_file,practice.thisRepN,practice.thisTrialN,practice.thisN,practice.thisIndex,main.thisRepN,main.thisTrialN,main.thisN,main.thisIndex,thisRow.t,notes,response_key,rt,Participant ID,Session,date,
7,AF30HAS.JPG,udskud_compressed.wav,negative,babble_38.wav,lækker_reversed.wav,kage_reversed.wav,0,0,0,0,0,-1,-1,0,,,8,2.176104700018186,3475,001,2025-12-06_13-26-58,
9,AM24NES.JPG,SILENCE,no-prime,babble_58.wav,ledning_reversed.wav,accept_reversed.wav,0,1,1,1,0,-1,-1,0,,,4,2.064611000008881,3475,001,2025-12-06_13-26-58,
147,AF14NES.JPG,SILENCE,no-prime,babble_63.wav,nedbrud_reversed.wav,søsyg_reversed.wav,0,2,2,2,0,-1,-1,0,,,3,0.3162574000307359,3475,001,2025-12-06_13-26-58,
24,AM07ANS.JPG,intim_compressed.wav,positive,babble_18.wav,accept_reversed.wav,søsyg_reversed.wav,0,3,3,3,0,-1,-1,0,,,1,0.25516220001736656,3475,001,2025-12-06_13-26-58,
67,AF12NES.JPG,dollar_compressed.wav,positive,babble_80.wav,tilfreds_reversed.wav,nonsens_reversed.wav,0,4,4,4,0,-1,-1,0,,,3,0.8090714999707416,3475,001,2025-12-06_13-26-58,
128,AF12HAS.JPG,SILENCE,no-prime,babble_28.wav,tilfreds_reversed.wav,maling_reversed.wav,0,5,5,5,0,-1,-1,0,,,6,1.1480682999826968,3475,001,2025-12-06_13-26-58,
113,AF13NES.JPG,heldig_compressed.wav,positive,babble_16.wav,marked_reversed.wav,hader_reversed.wav,,,,,0,0,0,0,,,4,0.6076278000255115,3475,001,2025-12-06_13-26-58,
70,AF10HAS.JPG,kontor_compressed.wav,neutral,babble_13.wav,kedel_reversed.wav,fjollet_reversed.wav,,,,,0,1,1,1,,,7,3.965114700025879,3475,001,2025-12-06_13-26-58,
17,AF20HAS.JPG,SILENCE,no-prime,babble_27.wav,rigdom_reversed.wav,søsyg_reversed.wav,,,,,0,2,2,2,,,8,0.38084220001474023,3475,001,2025-12-06_13-26-58,
87,AF24ANS.JPG,sollys_compressed.wav,positive,babble_67.wav,koldbrand_reversed.wav,grimme_reversed.wav,,,,,0,3,3,3,,,2,2.389458400022704,3475,001,2025-12-06_13-26-58,
34,AF34ANS.JPG,selvmord_compressed.wav,negative,babble_28.wav,kontor_reversed.wav,selvmord_reversed.wav,,,,,0,4,4,4,,,2,0.9016597999725491,3475,001,2025-12-06_13-26-58,
132,AM23HAS.JPG,forfald_compressed.wav,negative,babble_21.wav,rådden_reversed.wav,museum_reversed.wav,,,,,0,5,5,5,,,8,0.6154444999992847,3475,001,2025-12-06_13-26-58,
191,AM21ANS.JPG,fjollet_compressed.wav,positive,babble_39.wav,forkert_reversed.wav,stjerne_reversed.wav,,,,,0,6,6,6,,,3,1.0469338999828324,3475,001,2025-12-06_13-26-58,
184,AM04ANS.JPG,dæmon_compressed.wav,negative,babble_72.wav,skyldig_reversed.wav,redskab_reversed.wav,,,,,0,7,7,7,,,3,2.3027166999527253,3475,001,2025-12-06_13-26-58,
160,AF25ANS.JPG,affald_compressed.wav,negative,babble_59.wav,fjollet_reversed.wav,passion_reversed.wav,,,,,0,8,8,8,,,1,1.110016299993731,3475,001,2025-12-06_13-26-58,
139,AM11ANS.JPG,lyse_compressed.wav,positive,babble_65.wav,bombe_reversed.wav,metal_reversed.wav,,,,,0,9,9,9,,,1,1.2961535999784246,3475,001,2025-12-06_13-26-58,
101,AM13NES.JPG,SILENCE,no-prime,babble_52.wav,pervers_reversed.wav,kugle_reversed.wav,,,,,0,10,10,10,,,5,1.5421118999947794,3475,001,2025-12-06_13-26-58,
140,AM30ANS.JPG,enhed_compressed.wav,neutral,babble_42.wav,pervers_reversed.wav,ketchup_reversed.wav,,,,,0,11,11,11,,,3,0.6122677000239491,3475,001,2025-12-06_13-26-58,
158,AM06HAS.JPG,sejre_compressed.wav,positive,babble_63.wav,heldig_reversed.wav,grimme_reversed.wav,,,,,0,12,12,12,,,8,1.134784500056412,3475,001,2025-12-06_13-26-58,
27,AM22HAS.JPG,SILENCE,no-prime,babble_16.wav,engel_reversed.wav,fiasko_reversed.wav,,,,,0,13,13,13,,,7,0.3923050999874249,3475,001,2025-12-06_13-26-58,
179,AM03HAS.JPG,frihed_compressed.wav,positive,babble_73.wav,tortur_reversed.wav,oprør_reversed.wav,,,,,0,14,14,14,,,5,2.1491365999681875,3475,001,2025-12-06_13-26-58,
90,AF06ANS.JPG,kugle_compressed.wav,neutral,babble_53.wav,banner_reversed.wav,røver_reversed.wav,,,,,0,15,15,15,,,4,0.9916402999660932,3475,001,2025-12-06_13-26-58,
174,AF11NES.JPG,poesi_compressed.wav,neutral,babble_99.wav,kugle_reversed.wav,sexet_reversed.wav,,,,,0,16,16,16,,,4,0.6521358999889344,3475,001,2025-12-06_13-26-58,
161,AM01ANS.JPG,SILENCE,no-prime,babble_5.wav,skønhed_reversed.wav,illoyal_reversed.wav,,,,,0,17,17,17,,,2,0.6404578000074252,3475,001,2025-12-06_13-26-58,
150,AF03NES.JPG,sexet_compressed.wav,positive,babble_72.wav,heldig_reversed.wav,genstand_reversed.wav,,,,,0,18,18,18,,,5,2.3218373999698088,3475,001,2025-12-06_13-26-58,
38,AM17NES.JPG,bange_compressed.wav,negative,babble_70.wav,bygning_reversed.wav,hjerte_reversed.wav,,,,,0,19,19,19,,,4,0.9158366000046954,3475,001,2025-12-06_13-26-58,
66,AF26NES.JPG,syndig_compressed.wav,negative,babble_49.wav,gidsel_reversed.wav,fængsel_reversed.wav,,,,,0,20,20,20,,,4,1.2144004000001587,3475,001,2025-12-06_13-26-58,
11,AF23NES.JPG,redskab_compressed.wav,neutral,babble_50.wav,venlig_reversed.wav,taber_reversed.wav,,,,,0,21,21,21,,,5,0.69606859999476,3475,001,2025-12-06_13-26-58,
130,AM34HAS.JPG,skade_compressed.wav,negative,babble_65.wav,utro_reversed.wav,tortur_reversed.wav,,,,,0,22,22,22,,,8,0.8339038999984041,3475,001,2025-12-06_13-26-58,
26,AF15NES.JPG,baby_compressed.wav,positive,babble_73.wav,fjendtlig_reversed.wav,ledning_reversed.wav,,,,,0,23,23,23,,,3,0.8663694999995641,3475,001,2025-12-06_13-26-58,
8,AM01HAS.JPG,lækker_compressed.wav,positive,babble_23.wav,maling_reversed.wav,trussel_reversed.wav,,,,,0,24,24,24,,,7,1.8027957000304013,3475,001,2025-12-06_13-26-58,
49,AM30HAS.JPG,genert_compressed.wav,neutral,babble_89.wav,rædsel_reversed.wav,vinde_reversed.wav,,,,,0,25,25,25,,,6,4.637640599976294,3475,001,2025-12-06_13-26-58,
197,AM28NES.JPG,SILENCE,no-prime,babble_61.wav,himlen_reversed.wav,violin_reversed.wav,,,,,0,26,26,26,,,2,1.0291522999759763,3475,001,2025-12-06_13-26-58,
120,AM07HAS.JPG,SILENCE,no-prime,babble_79.wav,misbrug_reversed.wav,fedme_reversed.wav,,,,,0,27,27,27,,,9,0.675992300035432,3475,001,2025-12-06_13-26-58,
134,AF28HAS.JPG,stjerne_compressed.wav,positive,babble_10.wav,grusom_reversed.wav,kiste_reversed.wav,,,,,0,28,28,28,,,8,0.018735199992079288,3475,001,2025-12-06_13-26-58,
77,AF33HAS.JPG,traume_compressed.wav,negative,babble_33.wav,beskidt_reversed.wav,dæmpet_reversed.wav,,,,,0,29,29,29,,,9,0.05516460002399981,3475,001,2025-12-06_13-26-58,
69,AM19ANS.JPG,illoyal_compressed.wav,negative,babble_3.wav,ugle_reversed.wav,flirte_reversed.wav,,,,,0,30,30,30,,,2,0.8491854000021704,3475,001,2025-12-06_13-26-58,
109,AM15ANS.JPG,SILENCE,no-prime,babble_48.wav,latter_reversed.wav,fjollet_reversed.wav,,,,,0,31,31,31,,,1,0.31806260003941134,3475,001,2025-12-06_13-26-58,
54,AM11HAS.JPG,banner_compressed.wav,neutral,babble_91.wav,sikker_reversed.wav,pude_reversed.wav,,,,,0,32,32,32,,,8,0.13021480001043528,3475,001,2025-12-06_13-26-58,
143,AM26ANS.JPG,fængsel_compressed.wav,negative,babble_39.wav,genstand_reversed.wav,syndig_reversed.wav,,,,,0,33,33,33,,,3,0.7436550999991596,3475,001,2025-12-06_13-26-58,
170,AF05HAS.JPG,passion_compressed.wav,positive,babble_43.wav,enhed_reversed.wav,giftig_reversed.wav,,,,,0,34,34,34,,,7,2.1476202000048943,3475,001,2025-12-06_13-26-58,
192,AF06HAS.JPG,viden_compressed.wav,positive,babble_1.wav,opstemt_reversed.wav,vinde_reversed.wav,,,,,0,35,35,35,,,6,1.404311400023289,3475,001,2025-12-06_13-26-58,
157,AM14HAS.JPG,mester_compressed.wav,positive,babble_38.wav,ledning_reversed.wav,mester_reversed.wav,,,,,0,36,36,36,,,6,0.7276988999801688,3475,001,2025-12-06_13-26-58,
76,AM16HAS.JPG,respekt_compressed.wav,positive,babble_42.wav,talent_reversed.wav,vandal_reversed.wav,,,,,0,37,37,37,,,9,1.4357410999946296,3475,001,2025-12-06_13-26-58,
190,AF16NES.JPG,forkert_compressed.wav,negative,babble_53.wav,salat_reversed.wav,putte_reversed.wav,,,,,0,38,38,38,,,2,2.5795079999952577,3475,001,2025-12-06_13-26-58,
135,AF19HAS.JPG,glæde_compressed.wav,positive,babble_63.wav,gratis_reversed.wav,skammel_reversed.wav,,,,,0,39,39,39,,,8,1.246764199982863,3475,001,2025-12-06_13-26-58,
39,AF20ANS.JPG,modgang_compressed.wav,negative,babble_9.wav,latter_reversed.wav,utro_reversed.wav,,,,,0,40,40,40,,,2,0.7118463999941014,3475,001,2025-12-06_13-26-58,
45,AM23NES.JPG,statue_compressed.wav,neutral,babble_1.wav,giftig_reversed.wav,leder_reversed.wav,,,,,0,41,41,41,,,4,1.6549096999806352,3475,001,2025-12-06_13-26-58,
59,AF28ANS.JPG,borddug_compressed.wav,neutral,babble_14.wav,redskab_reversed.wav,bygning_reversed.wav,,,,,0,42,42,42,,,1,0.6919923999812454,3475,001,2025-12-06_13-26-58,
83,AF01ANS.JPG,afvist_compressed.wav,negative,babble_46.wav,enhed_reversed.wav,nonsens_reversed.wav,,,,,0,43,43,43,,,3,2.2131536999950185,3475,001,2025-12-06_13-26-58,
3,AM18NES.JPG,illoyal_compressed.wav,negative,babble_70.wav,salat_reversed.wav,forfald_reversed.wav,,,,,0,44,44,44,,,5,1.0518398999702185,3475,001,2025-12-06_13-26-58,
60,AF34HAS.JPG,SILENCE,no-prime,babble_37.wav,leder_reversed.wav,selvmord_reversed.wav,,,,,0,45,45,45,,,8,0.6144054000033066,3475,001,2025-12-06_13-26-58,
68,AF09NES.JPG,SILENCE,no-prime,babble_56.wav,lampe_reversed.wav,humor_reversed.wav,,,,,0,46,46,46,,,4,0.9177357999724336,3475,001,2025-12-06_13-26-58,
131,AM26HAS.JPG,cirkus_compressed.wav,positive,babble_12.wav,gaffel_reversed.wav,rotte_reversed.wav,,,,,0,47,47,47,,,8,1.091004099987913,3475,001,2025-12-06_13-26-58,
116,AF14ANS.JPG,SILENCE,no-prime,babble_45.wav,røver_reversed.wav,violin_reversed.wav,,,,,0,48,48,48,,,2,3.0614503999822773,3475,001,2025-12-06_13-26-58,
173,AF23HAS.JPG,SILENCE,no-prime,babble_8.wav,violin_reversed.wav,regnbue_reversed.wav,,,,,0,49,49,49,,,7,2.581956999958493,3475,001,2025-12-06_13-26-58,
41,AM24ANS.JPG,konge_compressed.wav,positive,babble_62.wav,misbrug_reversed.wav,brutal_reversed.wav,,,,,0,50,50,50,,,3,0.5987835000269115,3475,001,2025-12-06_13-26-58,
115,AF25NES.JPG,ære_compressed.wav,positive,babble_23.wav,trofæ_reversed.wav,cirkel_reversed.wav,,,,,0,51,51,51,,,4,2.2973355999565683,3475,001,2025-12-06_13-26-58,
14,AM02ANS.JPG,accept_compressed.wav,positive,babble_55.wav,jubel_reversed.wav,hage_reversed.wav,,,,,0,52,52,52,,,3,1.1350651999819092,3475,001,2025-12-06_13-26-58,
152,AM08ANS.JPG,respekt_compressed.wav,positive,babble_14.wav,sexet_reversed.wav,sindssyg_reversed.wav,,,,,0,53,53,53,,,1,1.6026956999558024,3475,001,2025-12-06_13-26-58,
182,AM29ANS.JPG,illoyal_compressed.wav,negative,babble_26.wav,smerte_reversed.wav,grusom_reversed.wav,,,,,0,54,54,54,,,1,1.0326386000378989,3475,001,2025-12-06_13-26-58,
98,AM12NES.JPG,SILENCE,no-prime,babble_55.wav,fremskridt_reversed.wav,ferie_reversed.wav,,,,,0,55,55,55,,,5,0.5334421999868937,3475,001,2025-12-06_13-26-58,
196,AF18NES.JPG,skyldig_compressed.wav,negative,babble_18.wav,statue_reversed.wav,ørken_reversed.wav,,,,,0,56,56,56,,,5,3.182712999987416,3475,001,2025-12-06_13-26-58,
107,AM04HAS.JPG,hånlig_compressed.wav,negative,babble_26.wav,blomstre_reversed.wav,opstemt_reversed.wav,,,,,0,57,57,57,,,8,1.3603600999922492,3475,001,2025-12-06_13-26-58,
6,AM05ANS.JPG,kujon_compressed.wav,negative,babble_77.wav,mave_reversed.wav,frygtsom_reversed.wav,,,,,0,58,58,58,,,2,1.3188147000037134,3475,001,2025-12-06_13-26-58,
186,AM10HAS.JPG,tortur_compressed.wav,negative,babble_58.wav,vinde_reversed.wav,fiasko_reversed.wav,,,,,0,59,59,59,,,8,1.160579500021413,3475,001,2025-12-06_13-26-58,
92,AM03NES.JPG,drukne_compressed.wav,negative,babble_42.wav,oprørt_reversed.wav,grimme_reversed.wav,,,,,0,60,60,60,,,4,0.5855947999516502,3475,001,2025-12-06_13-26-58,
15,AM20HAS.JPG,SILENCE,no-prime,babble_2.wav,gaffel_reversed.wav,oprørt_reversed.wav,,,,,0,61,61,61,,,7,0.6761636000010185,3475,001,2025-12-06_13-26-58,
5,AF01NES.JPG,voldsom_compressed.wav,negative,babble_74.wav,varme_reversed.wav,himlen_reversed.wav,,,,,0,62,62,62,,,5,0.7397502000094391,3475,001,2025-12-06_13-26-58,
78,AF04NES.JPG,SILENCE,no-prime,babble_25.wav,dæmpet_reversed.wav,avis_reversed.wav,,,,,0,63,63,63,,,4,1.5596807000110857,3475,001,2025-12-06_13-26-58,
86,AM13ANS.JPG,måned_compressed.wav,neutral,babble_11.wav,forpint_reversed.wav,grimme_reversed.wav,,,,,0,64,64,64,,,2,0.6233021999942139,3475,001,2025-12-06_13-26-58,
127,AF27HAS.JPG,forpint_compressed.wav,negative,babble_9.wav,koldbrand_reversed.wav,gidsel_reversed.wav,,,,,0,65,65,65,,,8,0.7547071999870241,3475,001,2025-12-06_13-26-58,
195,AF02ANS.JPG,skammel_compressed.wav,neutral,babble_70.wav,konkurs_reversed.wav,redning_reversed.wav,,,,,0,66,66,66,,,2,0.5665109999827109,3475,001,2025-12-06_13-26-58,
168,AM20NES.JPG,trofæ_compressed.wav,positive,babble_2.wav,boble_reversed.wav,utro_reversed.wav,,,,,0,67,67,67,,,4,0.7445450000232086,3475,001,2025-12-06_13-26-58,
185,AF14HAS.JPG,afvist_compressed.wav,negative,babble_48.wav,grimme_reversed.wav,kugle_reversed.wav,,,,,0,68,68,68,,,8,1.2087592000025325,3475,001,2025-12-06_13-26-58,
36,AM24HAS.JPG,afvist_compressed.wav,negative,babble_77.wav,museum_reversed.wav,beskidt_reversed.wav,,,,,0,69,69,69,,,8,0.7927601999836043,3475,001,2025-12-06_13-26-58,
85,AM27NES.JPG,banner_compressed.wav,neutral,babble_90.wav,leder_reversed.wav,ørken_reversed.wav,,,,,0,70,70,70,,,5,1.2566894000046887,3475,001,2025-12-06_13-26-58,
10,AF31HAS.JPG,ferie_compressed.wav,positive,babble_74.wav,bifald_reversed.wav,nedbrud_reversed.wav,,,,,0,71,71,71,,,8,0.84734410000965,3475,001,2025-12-06_13-26-58,
169,AF24HAS.JPG,SILENCE,no-prime,babble_78.wav,hader_reversed.wav,vindue_reversed.wav,,,,,0,72,72,72,,,9,2.7992790000280365,3475,001,2025-12-06_13-26-58,
13,AF13ANS.JPG,gratis_compressed.wav,positive,babble_48.wav,røver_reversed.wav,cirkel_reversed.wav,,,,,0,73,73,73,,,2,0.6188066999893636,3475,001,2025-12-06_13-26-58,
193,AF10NES.JPG,lampe_compressed.wav,neutral,babble_34.wav,morder_reversed.wav,vinde_reversed.wav,,,,,0,74,74,74,,,2,0.7807302000001073,3475,001,2025-12-06_13-26-58,
19,AF24NES.JPG,udskud_compressed.wav,negative,babble_87.wav,dæmpet_reversed.wav,vandfald_reversed.wav,,,,,0,75,75,75,,,5,1.1828677000012249,3475,001,2025-12-06_13-26-58,
163,AM30NES.JPG,redning_compressed.wav,positive,babble_54.wav,fiasko_reversed.wav,redskab_reversed.wav,,,,,0,76,76,76,,,3,1.2889509999658912,3475,001,2025-12-06_13-26-58,
12,AF02NES.JPG,nedbrud_compressed.wav,negative,babble_47.wav,traume_reversed.wav,offer_reversed.wav,,,,,0,77,77,77,,,4,1.0488629000028595,3475,001,2025-12-06_13-26-58,
108,AF20NES.JPG,flirte_compressed.wav,positive,babble_31.wav,rædsel_reversed.wav,giftig_reversed.wav,,,,,0,78,78,78,,,5,0.6645325000281446,3475,001,2025-12-06_13-26-58,
177,AF16ANS.JPG,ugle_compressed.wav,neutral,babble_12.wav,sexet_reversed.wav,morder_reversed.wav,,,,,0,79,79,79,,,3,0.6808972000144422,3475,001,2025-12-06_13-26-58,
146,AF35ANS.JPG,heldig_compressed.wav,positive,babble_38.wav,flirte_reversed.wav,tilfreds_reversed.wav,,,,,0,80,80,80,,,2,0.33215370000107214,3475,001,2025-12-06_13-26-58,
30,AF04ANS.JPG,fængsel_compressed.wav,negative,babble_91.wav,kærtegn_reversed.wav,vandal_reversed.wav,,,,,0,81,81,81,,,3,0.9858536999672651,3475,001,2025-12-06_13-26-58,
166,AF22HAS.JPG,SILENCE,no-prime,babble_71.wav,forpint_reversed.wav,natur_reversed.wav,,,,,0,82,82,82,,,7,1.1724428999586962,3475,001,2025-12-06_13-26-58,
56,AM14ANS.JPG,hjerte_compressed.wav,positive,babble_30.wav,ørken_reversed.wav,kedel_reversed.wav,,,,,0,83,83,83,,,2,0.8753431999939494,3475,001,2025-12-06_13-26-58,
64,AM22ANS.JPG,skyldig_compressed.wav,negative,babble_68.wav,kedel_reversed.wav,tumor_reversed.wav,,,,,0,84,84,84,,,2,0.4020118999760598,3475,001,2025-12-06_13-26-58,
48,AM31NES.JPG,kugle_compressed.wav,neutral,babble_86.wav,banner_reversed.wav,regnbue_reversed.wav,,,,,0,85,85,85,,,6,0.5193640999495983,3475,001,2025-12-06_13-26-58,
188,AM27ANS.JPG,konge_compressed.wav,positive,babble_42.wav,statue_reversed.wav,taxa_reversed.wav,,,,,0,86,86,86,,,4,0.8791858000331558,3475,001,2025-12-06_13-26-58,
151,AM18HAS.JPG,slagtning_compressed.wav,negative,babble_38.wav,patent_reversed.wav,skade_reversed.wav,,,,,0,87,87,87,,,8,0.8022858000476845,3475,001,2025-12-06_13-26-58,
129,AF04HAS.JPG,luksus_compressed.wav,positive,babble_28.wav,himmel_reversed.wav,metal_reversed.wav,,,,,0,88,88,88,,,7,0.8007875000475906,3475,001,2025-12-06_13-26-58,
95,AF31ANS.JPG,affald_compressed.wav,negative,babble_85.wav,respekt_reversed.wav,tilfreds_reversed.wav,,,,,0,89,89,89,,,2,0.29708209994714707,3475,001,2025-12-06_13-26-58,
155,AF31NES.JPG,humor_compressed.wav,positive,babble_68.wav,lærer_reversed.wav,luksus_reversed.wav,,,,,0,90,90,90,,,5,0.7715003999765031,3475,001,2025-12-06_13-26-58,
154,AF32NES.JPG,ketchup_compressed.wav,neutral,babble_0.wav,rigdom_reversed.wav,sejre_reversed.wav,,,,,0,91,91,91,,,4,0.6706340999808162,3475,001,2025-12-06_13-26-58,
111,AM15NES.JPG,violin_compressed.wav,neutral,babble_9.wav,varme_reversed.wav,bygning_reversed.wav,,,,,0,92,92,92,,,4,1.7658510999754071,3475,001,2025-12-06_13-26-58,
47,AF33NES.JPG,fjollet_compressed.wav,positive,babble_75.wav,rådden_reversed.wav,rædsel_reversed.wav,,,,,0,93,93,93,,,4,4.05043659999501,3475,001,2025-12-06_13-26-58,
199,AM31HAS.JPG,slave_compressed.wav,negative,babble_88.wav,affald_reversed.wav,opstemt_reversed.wav,,,,,0,94,94,94,,,7,0.6113298999844119,3475,001,2025-12-06_13-26-58,
119,AF08ANS.JPG,koldbrand_compressed.wav,negative,babble_71.wav,baby_reversed.wav,gade_reversed.wav,,,,,0,95,95,95,,,3,0.421729099994991,3475,001,2025-12-06_13-26-58,
165,AF06NES.JPG,dollar_compressed.wav,positive,babble_88.wav,lyse_reversed.wav,gaffel_reversed.wav,,,,,0,96,96,96,,,4,1.600326900021173,3475,001,2025-12-06_13-26-58,
181,AF19ANS.JPG,sindssyg_compressed.wav,negative,babble_47.wav,poesi_reversed.wav,grimme_reversed.wav,,,,,0,97,97,97,,,3,0.4986547000007704,3475,001,2025-12-06_13-26-58,
123,AF11HAS.JPG,natur_compressed.wav,positive,babble_67.wav,sollys_reversed.wav,luksus_reversed.wav,,,,,0,98,98,98,,,7,0.547311499947682,3475,001,2025-12-06_13-26-58,
93,AM35ANS.JPG,skammel_compressed.wav,neutral,babble_84.wav,heldig_reversed.wav,ugle_reversed.wav,,,,,0,99,99,99,,,3,0.9622360999928787,3475,001,2025-12-06_13-26-58,
122,AM21NES.JPG,varme_compressed.wav,positive,babble_48.wav,ugle_reversed.wav,sejre_reversed.wav,,,,,0,100,100,100,,,3,1.0340926999924704,3475,001,2025-12-06_13-26-58,
46,AM02NES.JPG,ankel_compressed.wav,neutral,babble_70.wav,søsyg_reversed.wav,mester_reversed.wav,,,,,0,101,101,101,,,3,0.8416506000212394,3475,001,2025-12-06_13-26-58,
137,AM21HAS.JPG,sollys_compressed.wav,positive,babble_78.wav,beskidt_reversed.wav,fængsel_reversed.wav,,,,,0,102,102,102,,,7,1.3446392000187188,3475,001,2025-12-06_13-26-58,
16,AM32NES.JPG,fiasko_compressed.wav,negative,babble_5.wav,rabies_reversed.wav,trofæ_reversed.wav,,,,,0,103,103,103,,,4,1.4996206000214443,3475,001,2025-12-06_13-26-58,
25,AM27HAS.JPG,ferie_compressed.wav,positive,babble_4.wav,nøgle_reversed.wav,lærer_reversed.wav,,,,,0,104,104,104,,,7,2.374866399972234,3475,001,2025-12-06_13-26-58,
145,AM01NES.JPG,dæmon_compressed.wav,negative,babble_52.wav,viden_reversed.wav,skade_reversed.wav,,,,,0,105,105,105,,,3,0.9890310000046156,3475,001,2025-12-06_13-26-58,
200,AM07NES.JPG,gade_compressed.wav,neutral,babble_40.wav,finger_reversed.wav,ørken_reversed.wav,,,,,0,106,106,106,,,4,1.007431700010784,3475,001,2025-12-06_13-26-58,
126,AM32HAS.JPG,pjece_compressed.wav,neutral,babble_95.wav,mave_reversed.wav,beskidt_reversed.wav,,,,,0,107,107,107,,,6,2.1384362999815494,3475,001,2025-12-06_13-26-58,
72,AF09ANS.JPG,SILENCE,no-prime,babble_67.wav,leder_reversed.wav,motor_reversed.wav,,,,,0,108,108,108,,,2,0.9032903000479564,3475,001,2025-12-06_13-26-58,
4,AF29ANS.JPG,hader_compressed.wav,negative,babble_62.wav,mave_reversed.wav,sexet_reversed.wav,,,,,0,109,109,109,,,3,0.8717491999850608,3475,001,2025-12-06_13-26-58,
55,AF32ANS.JPG,gade_compressed.wav,neutral,babble_80.wav,gratis_reversed.wav,diamant_reversed.wav,,,,,0,110,110,110,,,3,0.36335989995859563,3475,001,2025-12-06_13-26-58,
159,AF01HAS.JPG,baby_compressed.wav,positive,babble_45.wav,fase_reversed.wav,nonne_reversed.wav,,,,,0,111,111,111,,,8,1.6461519000004046,3475,001,2025-12-06_13-26-58,
63,AF27ANS.JPG,beskidt_compressed.wav,negative,babble_66.wav,sæde_reversed.wav,djævel_reversed.wav,,,,,0,112,112,112,,,4,1.8433969000470825,3475,001,2025-12-06_13-26-58,
117,AF02HAS.JPG,røver_compressed.wav,negative,babble_36.wav,borddug_reversed.wav,latter_reversed.wav,,,,,0,113,113,113,,,9,0.9191284000407904,3475,001,2025-12-06_13-26-58,
162,AM16ANS.JPG,kiste_compressed.wav,negative,babble_18.wav,spænding_reversed.wav,lærer_reversed.wav,,,,,0,114,114,114,,,2,1.401889700035099,3475,001,2025-12-06_13-26-58,
183,AF30NES.JPG,skammel_compressed.wav,neutral,babble_43.wav,trofæ_reversed.wav,enhed_reversed.wav,,,,,0,115,115,115,,,5,0.6073305000318214,3475,001,2025-12-06_13-26-58,
74,AF13HAS.JPG,søsyg_compressed.wav,negative,babble_15.wav,opstemt_reversed.wav,ledning_reversed.wav,,,,,0,116,116,116,,,8,1.269323299988173,3475,001,2025-12-06_13-26-58,
105,AM04NES.JPG,grusom_compressed.wav,negative,babble_55.wav,gratis_reversed.wav,frihed_reversed.wav,,,,,0,117,117,117,,,5,0.6291908000130206,3475,001,2025-12-06_13-26-58,
133,AM17ANS.JPG,musik_compressed.wav,positive,babble_50.wav,rådden_reversed.wav,maling_reversed.wav,,,,,0,118,118,118,,,1,1.8651215999852866,3475,001,2025-12-06_13-26-58,
178,AF15HAS.JPG,syndig_compressed.wav,negative,babble_66.wav,hage_reversed.wav,pervers_reversed.wav,,,,,0,119,119,119,,,8,1.093616500031203,3475,001,2025-12-06_13-26-58,
32,AM08NES.JPG,voldtægt_compressed.wav,negative,babble_8.wav,rådden_reversed.wav,himlen_reversed.wav,,,,,0,120,120,120,,,5,2.3072418999508955,3475,001,2025-12-06_13-26-58,
176,AM34NES.JPG,kiste_compressed.wav,negative,babble_57.wav,avis_reversed.wav,luksus_reversed.wav,,,,,0,121,121,121,,,4,0.7075737999984995,3475,001,2025-12-06_13-26-58,
52,AF28NES.JPG,røver_compressed.wav,negative,babble_21.wav,ledning_reversed.wav,spænding_reversed.wav,,,,,0,122,122,122,,,4,1.1285106999566779,3475,001,2025-12-06_13-26-58,
18,AM05HAS.JPG,passion_compressed.wav,positive,babble_49.wav,luksus_reversed.wav,natur_reversed.wav,,,,,0,123,123,123,,,8,0.5750707000261173,3475,001,2025-12-06_13-26-58,
124,AF27NES.JPG,cirkus_compressed.wav,positive,babble_3.wav,misbrug_reversed.wav,ørken_reversed.wav,,,,,0,124,124,124,,,3,0.6085822999593802,3475,001,2025-12-06_13-26-58,
118,AM22NES.JPG,engel_compressed.wav,positive,babble_53.wav,tumor_reversed.wav,koldbrand_reversed.wav,,,,,0,125,125,125,,,3,1.0426689999876544,3475,001,2025-12-06_13-26-58,
43,AM10NES.JPG,dæmpet_compressed.wav,neutral,babble_41.wav,pude_reversed.wav,gidsel_reversed.wav,,,,,0,126,126,126,,,4,0.6372382999979891,3475,001,2025-12-06_13-26-58,
50,AM08HAS.JPG,SILENCE,no-prime,babble_84.wav,violin_reversed.wav,albue_reversed.wav,,,,,0,127,127,127,,,8,1.1963904000003822,3475,001,2025-12-06_13-26-58,
65,AF33ANS.JPG,grusom_compressed.wav,negative,babble_8.wav,gidsel_reversed.wav,baby_reversed.wav,,,,,0,128,128,128,,,1,0.5555505999946035,3475,001,2025-12-06_13-26-58,
96,AF21ANS.JPG,SILENCE,no-prime,babble_26.wav,knude_reversed.wav,motor_reversed.wav,,,,,0,129,129,129,,,2,0.4284825999638997,3475,001,2025-12-06_13-26-58,
138,AM33NES.JPG,hånlig_compressed.wav,negative,babble_54.wav,sollys_reversed.wav,sandhed_reversed.wav,,,,,0,130,130,130,,,4,1.9052353000151925,3475,001,2025-12-06_13-26-58,
62,AF29HAS.JPG,gidsel_compressed.wav,negative,babble_42.wav,selvmord_reversed.wav,kontor_reversed.wav,,,,,0,131,131,131,,,7,0.1189246000139974,3475,001,2025-12-06_13-26-58,
148,AF08NES.JPG,SILENCE,no-prime,babble_9.wav,rotte_reversed.wav,magisk_reversed.wav,,,,,0,132,132,132,,,5,2.811435999989044,3475,001,2025-12-06_13-26-58,
22,AF17ANS.JPG,SILENCE,no-prime,babble_1.wav,misbrug_reversed.wav,mester_reversed.wav,,,,,0,133,133,133,,,2,1.2858477999689057,3475,001,2025-12-06_13-26-58,
97,AM12HAS.JPG,SILENCE,no-prime,babble_57.wav,væmmes_reversed.wav,søsyg_reversed.wav,,,,,0,134,134,134,,,7,2.416871400026139,3475,001,2025-12-06_13-26-58,
82,AF10ANS.JPG,succes_compressed.wav,positive,babble_43.wav,stjerne_reversed.wav,dæmpet_reversed.wav,,,,,0,135,135,135,,,2,0.4268842000165023,3475,001,2025-12-06_13-26-58,
102,AF05NES.JPG,morder_compressed.wav,negative,babble_14.wav,stjerne_reversed.wav,forkert_reversed.wav,,,,,0,136,136,136,,,4,0.7319032999803312,3475,001,2025-12-06_13-26-58,
164,AF26HAS.JPG,SILENCE,no-prime,babble_63.wav,regnbue_reversed.wav,slave_reversed.wav,,,,,0,137,137,137,,,7,1.0815026999916881,3475,001,2025-12-06_13-26-58,
187,AF22ANS.JPG,slave_compressed.wav,negative,babble_77.wav,redskab_reversed.wav,affald_reversed.wav,,,,,0,138,138,138,,,3,1.2196434999932535,3475,001,2025-12-06_13-26-58,
175,AF11ANS.JPG,gaffel_compressed.wav,neutral,babble_10.wav,nedbrud_reversed.wav,gratis_reversed.wav,,,,,0,139,139,139,,,2,1.3310553999617696,3475,001,2025-12-06_13-26-58,
58,AF17NES.JPG,kontor_compressed.wav,neutral,babble_18.wav,himlen_reversed.wav,engel_reversed.wav,,,,,0,140,140,140,,,5,1.377246499992907,3475,001,2025-12-06_13-26-58,
121,AM10ANS.JPG,leder_compressed.wav,positive,babble_1.wav,metal_reversed.wav,borddug_reversed.wav,,,,,0,141,141,141,,,2,0.5872222000034526,3475,001,2025-12-06_13-26-58,
44,AM05NES.JPG,røver_compressed.wav,negative,babble_83.wav,forpint_reversed.wav,humor_reversed.wav,,,,,0,142,142,142,,,4,1.527876699983608,3475,001,2025-12-06_13-26-58,
91,AM29HAS.JPG,taber_compressed.wav,negative,babble_28.wav,hage_reversed.wav,glæde_reversed.wav,,,,,0,143,143,143,,,7,0.6013889000169002,3475,001,2025-12-06_13-26-58,
57,AF21HAS.JPG,kæle_compressed.wav,positive,babble_1.wav,kiste_reversed.wav,morder_reversed.wav,,,,,0,144,144,144,,,8,0.5939649000065401,3475,001,2025-12-06_13-26-58,
125,AF35HAS.JPG,affald_compressed.wav,negative,babble_18.wav,ugle_reversed.wav,ledning_reversed.wav,,,,,0,145,145,145,,,8,1.0141895999549888,3475,001,2025-12-06_13-26-58,
23,AM09ANS.JPG,bifald_compressed.wav,positive,babble_41.wav,ørken_reversed.wav,bygning_reversed.wav,,,,,0,146,146,146,,,1,0.4427218000055291,3475,001,2025-12-06_13-26-58,
156,AF18HAS.JPG,SILENCE,no-prime,babble_32.wav,poesi_reversed.wav,tilfreds_reversed.wav,,,,,0,147,147,147,,,8,0.5231974000344053,3475,001,2025-12-06_13-26-58,
141,AF32HAS.JPG,ønske_compressed.wav,positive,babble_33.wav,tortur_reversed.wav,fedme_reversed.wav,,,,,0,148,148,148,,,8,0.6691350999753922,3475,001,2025-12-06_13-26-58,
51,AM03ANS.JPG,museum_compressed.wav,neutral,babble_83.wav,sollys_reversed.wav,lampe_reversed.wav,,,,,0,149,149,149,,,1,0.38032039999961853,3475,001,2025-12-06_13-26-58,
79,AM06ANS.JPG,slagtning_compressed.wav,negative,babble_54.wav,rigdom_reversed.wav,flirte_reversed.wav,,,,,0,150,150,150,,,2,0.5250026999856345,3475,001,2025-12-06_13-26-58,
103,AF07HAS.JPG,plakat_compressed.wav,neutral,babble_74.wav,slave_reversed.wav,sandhed_reversed.wav,,,,,0,151,151,151,,,8,0.6295273000141606,3475,001,2025-12-06_13-26-58,
172,AF15ANS.JPG,forår_compressed.wav,positive,babble_69.wav,bange_reversed.wav,kujon_reversed.wav,,,,,0,152,152,152,,,2,0.5657080999808386,3475,001,2025-12-06_13-26-58,
73,AF08HAS.JPG,gaffel_compressed.wav,neutral,babble_97.wav,marked_reversed.wav,skønhed_reversed.wav,,,,,0,153,153,153,,,7,0.721070800034795,3475,001,2025-12-06_13-26-58,
53,AM28ANS.JPG,SILENCE,no-prime,babble_21.wav,fjendtlig_reversed.wav,dæmpet_reversed.wav,,,,,0,154,154,154,,,3,0.8708056000177749,3475,001,2025-12-06_13-26-58,
167,AF17HAS.JPG,selvmord_compressed.wav,negative,babble_78.wav,genert_reversed.wav,kærtegn_reversed.wav,,,,,0,155,155,155,,,8,1.727411600004416,3475,001,2025-12-06_13-26-58,
89,AM19HAS.JPG,ære_compressed.wav,positive,babble_74.wav,vandal_reversed.wav,leder_reversed.wav,,,,,0,156,156,156,,,5,3.0167308999807574,3475,001,2025-12-06_13-26-58,
84,AF30ANS.JPG,leder_compressed.wav,positive,babble_53.wav,avis_reversed.wav,selvmord_reversed.wav,,,,,0,157,157,157,,,5,3.8252117999945767,3475,001,2025-12-06_13-26-58,
153,AF25HAS.JPG,SILENCE,no-prime,babble_62.wav,skammel_reversed.wav,flirte_reversed.wav,,,,,0,158,158,158,,,9,2.8084510000189766,3475,001,2025-12-06_13-26-58,
21,AM13HAS.JPG,viden_compressed.wav,positive,babble_7.wav,kærtegn_reversed.wav,marked_reversed.wav,,,,,0,159,159,159,,,6,1.334518699964974,3475,001,2025-12-06_13-26-58,
75,AM06NES.JPG,røver_compressed.wav,negative,babble_76.wav,statue_reversed.wav,ønske_reversed.wav,,,,,0,160,160,160,,,5,1.1285597000387497,3475,001,2025-12-06_13-26-58,
61,AF05ANS.JPG,himlen_compressed.wav,positive,babble_90.wav,motor_reversed.wav,frihed_reversed.wav,,,,,0,161,161,161,,,2,0.4972142999758944,3475,001,2025-12-06_13-26-58,
81,AF03HAS.JPG,koldbrand_compressed.wav,negative,babble_45.wav,grusom_reversed.wav,sikker_reversed.wav,,,,,0,162,162,162,,,7,0.8007429999997839,3475,001,2025-12-06_13-26-58,
71,AM28HAS.JPG,drukne_compressed.wav,negative,babble_58.wav,maling_reversed.wav,mave_reversed.wav,,,,,0,163,163,163,,,7,0.8155416000518017,3475,001,2025-12-06_13-26-58,
149,AM18ANS.JPG,pude_compressed.wav,positive,babble_52.wav,søsyg_reversed.wav,engel_reversed.wav,,,,,0,164,164,164,,,2,0.32419309997931123,3475,001,2025-12-06_13-26-58,
2,AM34ANS.JPG,baby_compressed.wav,positive,babble_0.wav,frygtsom_reversed.wav,museum_reversed.wav,,,,,0,165,165,165,,,4,1.073819400044158,3475,001,2025-12-06_13-26-58,
171,AF09HAS.JPG,natur_compressed.wav,positive,babble_98.wav,sikker_reversed.wav,lærer_reversed.wav,,,,,0,166,166,166,,,7,0.7499252000125125,3475,001,2025-12-06_13-26-58,
144,AM11NES.JPG,SILENCE,no-prime,babble_85.wav,fedme_reversed.wav,oprør_reversed.wav,,,,,0,167,167,167,,,5,0.6319903999683447,3475,001,2025-12-06_13-26-58,
194,AM33ANS.JPG,knude_compressed.wav,neutral,babble_93.wav,affald_reversed.wav,ketchup_reversed.wav,,,,,0,168,168,168,,,3,1.059010999975726,3475,001,2025-12-06_13-26-58,
94,AM31ANS.JPG,luder_compressed.wav,negative,babble_44.wav,skuffe_reversed.wav,nedbrud_reversed.wav,,,,,0,169,169,169,,,2,0.671843699994497,3475,001,2025-12-06_13-26-58,
20,AF12ANS.JPG,fase_compressed.wav,neutral,babble_8.wav,vandal_reversed.wav,mave_reversed.wav,,,,,0,170,170,170,,,4,2.749873100023251,3475,001,2025-12-06_13-26-58,
110,AM14NES.JPG,leder_compressed.wav,positive,babble_87.wav,vindue_reversed.wav,søsyg_reversed.wav,,,,,0,171,171,171,,,5,0.47416069998871535,3475,001,2025-12-06_13-26-58,
1,AM20ANS.JPG,hjerte_compressed.wav,positive,babble_78.wav,sindssyg_reversed.wav,ønske_reversed.wav,,,,,0,172,172,172,,,3,0.5885995000135154,3475,001,2025-12-06_13-26-58,
136,AF22NES.JPG,ferie_compressed.wav,positive,babble_63.wav,morder_reversed.wav,talent_reversed.wav,,,,,0,173,173,173,,,5,0.8001719000167213,3475,001,2025-12-06_13-26-58,
104,AF07NES.JPG,fiasko_compressed.wav,negative,babble_78.wav,talent_reversed.wav,fremskridt_reversed.wav,,,,,0,174,174,174,,,5,1.305571700038854,3475,001,2025-12-06_13-26-58,
31,AM16NES.JPG,SILENCE,no-prime,babble_54.wav,banner_reversed.wav,festlig_reversed.wav,,,,,0,175,175,175,,,5,2.943695400026627,3475,001,2025-12-06_13-26-58,
99,AM32ANS.JPG,sandhed_compressed.wav,positive,babble_86.wav,plakat_reversed.wav,motor_reversed.wav,,,,,0,176,176,176,,,3,0.40012010000646114,3475,001,2025-12-06_13-26-58,
80,AF23ANS.JPG,SILENCE,no-prime,babble_89.wav,ankel_reversed.wav,brænde_reversed.wav,,,,,0,177,177,177,,,2,0.9673140000086278,3475,001,2025-12-06_13-26-58,
112,AM09NES.JPG,latter_compressed.wav,positive,babble_47.wav,slave_reversed.wav,feber_reversed.wav,,,,,0,178,178,178,,,5,1.97259890002897,3475,001,2025-12-06_13-26-58,
29,AM17HAS.JPG,SILENCE,no-prime,babble_82.wav,kæle_reversed.wav,plakat_reversed.wav,,,,,0,179,179,179,,,8,1.0340748999733478,3475,001,2025-12-06_13-26-58,
198,AM26NES.JPG,tortur_compressed.wav,negative,babble_91.wav,forkert_reversed.wav,fjollet_reversed.wav,,,,,0,180,180,180,,,5,0.4964777000132017,3475,001,2025-12-06_13-26-58,
106,AM19NES.JPG,hårnål_compressed.wav,neutral,babble_31.wav,kujon_reversed.wav,grusom_reversed.wav,,,,,0,181,181,181,,,4,1.1093199000461027,3475,001,2025-12-06_13-26-58,
33,AM35HAS.JPG,afvist_compressed.wav,negative,babble_29.wav,krise_reversed.wav,knude_reversed.wav,,,,,0,182,182,182,,,6,0.5708973999717273,3475,001,2025-12-06_13-26-58,
180,AM25HAS.JPG,jubel_compressed.wav,positive,babble_19.wav,taber_reversed.wav,succes_reversed.wav,,,,,0,183,183,183,,,8,0.7414579000324011,3475,001,2025-12-06_13-26-58,
28,AF34NES.JPG,opstemt_compressed.wav,positive,babble_42.wav,regnbue_reversed.wav,kujon_reversed.wav,,,,,0,184,184,184,,,5,2.0559916999773122,3475,001,2025-12-06_13-26-58,
142,AF29NES.JPG,SILENCE,no-prime,babble_40.wav,sandhed_reversed.wav,affald_reversed.wav,,,,,0,185,185,185,,,4,2.6378673000144772,3475,001,2025-12-06_13-26-58,
100,AM25NES.JPG,natur_compressed.wav,positive,babble_96.wav,cirkel_reversed.wav,beskidt_reversed.wav,,,,,0,186,186,186,,,4,0.6911884999717586,3475,001,2025-12-06_13-26-58,
40,AF35NES.JPG,affald_compressed.wav,negative,babble_68.wav,kontor_reversed.wav,nonne_reversed.wav,,,,,0,187,187,187,,,5,0.8311179000302218,3475,001,2025-12-06_13-26-58,
42,AM09HAS.JPG,minder_compressed.wav,positive,babble_46.wav,borddug_reversed.wav,koldbrand_reversed.wav,,,,,0,188,188,188,,,7,1.2910753000178374,3475,001,2025-12-06_13-26-58,
37,AM15HAS.JPG,grusom_compressed.wav,negative,babble_67.wav,feber_reversed.wav,ledning_reversed.wav,,,,,0,189,189,189,,,6,0.5237265000469051,3475,001,2025-12-06_13-26-58,
35,AM35NES.JPG,ydmyg_compressed.wav,neutral,babble_24.wav,leder_reversed.wav,talent_reversed.wav,,,,,0,190,190,190,,,4,0.4914489000220783,3475,001,2025-12-06_13-26-58,
114,AM25ANS.JPG,motor_compressed.wav,neutral,babble_81.wav,dæmon_reversed.wav,giftig_reversed.wav,,,,,0,191,191,191,,,3,1.7963779999990948,3475,001,2025-12-06_13-26-58,
88,AM33HAS.JPG,festlig_compressed.wav,positive,babble_12.wav,skyldig_reversed.wav,modgang_reversed.wav,,,,,0,192,192,192,,,4,1.4966762999538332,3475,001,2025-12-06_13-26-58,
189,AM12ANS.JPG,traume_compressed.wav,negative,babble_80.wav,kærtegn_reversed.wav,morder_reversed.wav,,,,,0,193,193,193,,,3,0.6736933999927714,3475,001,2025-12-06_13-26-58,
