trial_i,face_file,prime_file,prime_valence,babbling_file,mask1_file,mask2_file,practice.thisRepN,practice.thisTrialN,practice.thisN,practice.thisIndex,main.thisRepN,main.thisTrialN,main.thisN,main.thisIndex,response_key,rt,Participant ID,Session,date,
164,AM13NES.JPG,genert_compressed.wav,neutral,babble_23.wav,ørken_reversed.wav,ankel_reversed.wav,0,0,0,0,0,-1,-1,0,3,0.2073829174041748,6702,001,2025-11-24_10-32-28,
14,AM30NES.JPG,ensom_compressed.wav,negative,babble_46.wav,jubel_reversed.wav,bygning_reversed.wav,0,1,1,1,0,-1,-1,0,2,0.9817819595336914,6702,001,2025-11-24_10-32-28,
150,AF10NES.JPG,baby_compressed.wav,positive,babble_72.wav,oprør_reversed.wav,bombe_reversed.wav,0,2,2,2,0,-1,-1,0,3,0.22612619400024414,6702,001,2025-11-24_10-32-28,
110,AM13ANS.JPG,SILENCE,no-prime,babble_46.wav,rotte_reversed.wav,måned_reversed.wav,0,3,3,3,0,-1,-1,0,2,0.5480771064758301,6702,001,2025-11-24_10-32-28,
158,AF35ANS.JPG,ørken_compressed.wav,negative,babble_87.wav,redskab_reversed.wav,marked_reversed.wav,0,4,4,4,0,-1,-1,0,2,0.2657918930053711,6702,001,2025-11-24_10-32-28,
157,AF34ANS.JPG,putte_compressed.wav,positive,babble_99.wav,djævel_reversed.wav,slave_reversed.wav,0,5,5,5,0,-1,-1,0,3,0.4393448829650879,6702,001,2025-11-24_10-32-28,
16,AM27HAS.JPG,SILENCE,no-prime,babble_56.wav,passion_reversed.wav,avis_reversed.wav,,,,,0,0,0,0,6,0.26958799362182617,6702,001,2025-11-24_10-32-28,
118,AF16NES.JPG,nonne_compressed.wav,neutral,babble_50.wav,nøgle_reversed.wav,metal_reversed.wav,,,,,0,1,1,1,4,0.49099206924438477,6702,001,2025-11-24_10-32-28,
80,AF06ANS.JPG,dollar_compressed.wav,positive,babble_93.wav,hånlig_reversed.wav,museum_reversed.wav,,,,,0,2,2,2,2,0.5362770557403564,6702,001,2025-11-24_10-32-28,
13,AF12NES.JPG,himmel_compressed.wav,positive,babble_98.wav,sexet_reversed.wav,gaffel_reversed.wav,,,,,0,3,3,3,3,0.06114315986633301,6702,001,2025-11-24_10-32-28,
113,AM24HAS.JPG,trussel_compressed.wav,negative,babble_24.wav,sikker_reversed.wav,rådden_reversed.wav,,,,,0,4,4,4,8,0.6757199764251709,6702,001,2025-11-24_10-32-28,
111,AM24ANS.JPG,SILENCE,no-prime,babble_2.wav,sæde_reversed.wav,redning_reversed.wav,,,,,0,5,5,5,3,0.25565314292907715,6702,001,2025-11-24_10-32-28,
146,AF07NES.JPG,fjollet_compressed.wav,positive,babble_63.wav,smerte_reversed.wav,lækker_reversed.wav,,,,,0,6,6,6,5,0.2832000255584717,6702,001,2025-11-24_10-32-28,
38,AM01NES.JPG,ferie_compressed.wav,positive,babble_22.wav,ørken_reversed.wav,kugle_reversed.wav,,,,,0,7,7,7,3,0.44817090034484863,6702,001,2025-11-24_10-32-28,
129,AM21NES.JPG,blomstre_compressed.wav,positive,babble_94.wav,kujon_reversed.wav,sejre_reversed.wav,,,,,0,8,8,8,3,0.6339061260223389,6702,001,2025-11-24_10-32-28,
19,AM20NES.JPG,oprørt_compressed.wav,negative,babble_18.wav,nonne_reversed.wav,djævel_reversed.wav,,,,,0,9,9,9,4,0.1504969596862793,6702,001,2025-11-24_10-32-28,
56,AF31ANS.JPG,pjece_compressed.wav,neutral,babble_67.wav,baby_reversed.wav,stjerne_reversed.wav,,,,,0,10,10,10,1,1.387099027633667,6702,001,2025-11-24_10-32-28,
127,AM14NES.JPG,rigdom_compressed.wav,positive,babble_95.wav,knude_reversed.wav,cirkel_reversed.wav,,,,,0,11,11,11,4,0.5693299770355225,6702,001,2025-11-24_10-32-28,
147,AF09ANS.JPG,patent_compressed.wav,neutral,babble_76.wav,viden_reversed.wav,regnbue_reversed.wav,,,,,0,12,12,12,3,0.9507129192352295,6702,001,2025-11-24_10-32-28,
161,AF05HAS.JPG,engel_compressed.wav,positive,babble_57.wav,voldtægt_reversed.wav,spænding_reversed.wav,,,,,0,13,13,13,7,0.5871660709381104,6702,001,2025-11-24_10-32-28,
31,AM04NES.JPG,latter_compressed.wav,positive,babble_30.wav,brænde_reversed.wav,museum_reversed.wav,,,,,0,14,14,14,5,0.18996214866638184,6702,001,2025-11-24_10-32-28,
159,AF05ANS.JPG,væmmes_compressed.wav,negative,babble_39.wav,viden_reversed.wav,fjendtlig_reversed.wav,,,,,0,15,15,15,3,0.3424999713897705,6702,001,2025-11-24_10-32-28,
106,AM19ANS.JPG,oprørt_compressed.wav,negative,babble_43.wav,lyse_reversed.wav,trussel_reversed.wav,,,,,0,16,16,16,2,0.018119096755981445,6702,001,2025-11-24_10-32-28,
183,AF26NES.JPG,heldig_compressed.wav,positive,babble_28.wav,sejre_reversed.wav,spise_reversed.wav,,,,,0,17,17,17,5,0.9936721324920654,6702,001,2025-11-24_10-32-28,
108,AF29ANS.JPG,museum_compressed.wav,neutral,babble_65.wav,sæde_reversed.wav,blodig_reversed.wav,,,,,0,18,18,18,2,0.30122900009155273,6702,001,2025-11-24_10-32-28,
180,AM34NES.JPG,heldig_compressed.wav,positive,babble_26.wav,skade_reversed.wav,gidsel_reversed.wav,,,,,0,19,19,19,2,0.851111888885498,6702,001,2025-11-24_10-32-28,
11,AF32HAS.JPG,SILENCE,no-prime,babble_50.wav,varme_reversed.wav,venlig_reversed.wav,,,,,0,20,20,20,9,3.2385339736938477,6702,001,2025-11-24_10-32-28,
109,AM05ANS.JPG,himmel_compressed.wav,positive,babble_59.wav,fjendtlig_reversed.wav,kontor_reversed.wav,,,,,0,21,21,21,2,1.0962309837341309,6702,001,2025-11-24_10-32-28,
61,AM22HAS.JPG,banner_compressed.wav,neutral,babble_2.wav,venlig_reversed.wav,traume_reversed.wav,,,,,0,22,22,22,8,0.01761603355407715,6702,001,2025-11-24_10-32-28,
156,AM03HAS.JPG,frihed_compressed.wav,positive,babble_9.wav,gidsel_reversed.wav,fjendtlig_reversed.wav,,,,,0,23,23,23,7,0.11595892906188965,6702,001,2025-11-24_10-32-28,
141,AF11NES.JPG,gaffel_compressed.wav,neutral,babble_47.wav,giftig_reversed.wav,redskab_reversed.wav,,,,,0,24,24,24,4,0.46555495262145996,6702,001,2025-11-24_10-32-28,
93,AM24NES.JPG,himmel_compressed.wav,positive,babble_74.wav,sejre_reversed.wav,motor_reversed.wav,,,,,0,25,25,25,4,1.1872191429138184,6702,001,2025-11-24_10-32-28,
112,AM32ANS.JPG,sejre_compressed.wav,positive,babble_84.wav,metal_reversed.wav,baby_reversed.wav,,,,,0,26,26,26,3,0.26432204246520996,6702,001,2025-11-24_10-32-28,
34,AM32HAS.JPG,penge_compressed.wav,positive,babble_27.wav,frihed_reversed.wav,knude_reversed.wav,,,,,0,27,27,27,8,0.35592007637023926,6702,001,2025-11-24_10-32-28,
90,AF21ANS.JPG,SILENCE,no-prime,babble_48.wav,humor_reversed.wav,redning_reversed.wav,,,,,0,28,28,28,2,0.5160200595855713,6702,001,2025-11-24_10-32-28,
144,AF29HAS.JPG,ugle_compressed.wav,neutral,babble_36.wav,luksus_reversed.wav,vandal_reversed.wav,,,,,0,29,29,29,9,0.3964259624481201,6702,001,2025-11-24_10-32-28,
149,AM31NES.JPG,sollys_compressed.wav,positive,babble_57.wav,ledning_reversed.wav,lyse_reversed.wav,,,,,0,30,30,30,4,0.33686304092407227,6702,001,2025-11-24_10-32-28,
29,AM02HAS.JPG,koldbrand_compressed.wav,negative,babble_26.wav,diamant_reversed.wav,spænding_reversed.wav,,,,,0,31,31,31,6,0.03755497932434082,6702,001,2025-11-24_10-32-28,
100,AF19HAS.JPG,ensom_compressed.wav,negative,babble_37.wav,hader_reversed.wav,illoyal_reversed.wav,,,,,0,32,32,32,8,0.24814796447753906,6702,001,2025-11-24_10-32-28,
160,AM05NES.JPG,ensom_compressed.wav,negative,babble_40.wav,knude_reversed.wav,traume_reversed.wav,,,,,0,33,33,33,4,0.284045934677124,6702,001,2025-11-24_10-32-28,
48,AF19ANS.JPG,sæde_compressed.wav,neutral,babble_5.wav,fiasko_reversed.wav,rabies_reversed.wav,,,,,0,34,34,34,2,1.1340889930725098,6702,001,2025-11-24_10-32-28,
86,AM11HAS.JPG,patent_compressed.wav,neutral,babble_11.wav,putte_reversed.wav,oprørt_reversed.wav,,,,,0,35,35,35,8,1.6585018634796143,6702,001,2025-11-24_10-32-28,
15,AF30NES.JPG,SILENCE,no-prime,babble_87.wav,glæde_reversed.wav,rådden_reversed.wav,,,,,0,36,36,36,5,0.3930180072784424,6702,001,2025-11-24_10-32-28,
37,AF02HAS.JPG,luksus_compressed.wav,positive,babble_4.wav,bange_reversed.wav,viden_reversed.wav,,,,,0,37,37,37,9,0.7228188514709473,6702,001,2025-11-24_10-32-28,
67,AM25NES.JPG,glæde_compressed.wav,positive,babble_67.wav,luksus_reversed.wav,hjerte_reversed.wav,,,,,0,38,38,38,5,0.06649303436279297,6702,001,2025-11-24_10-32-28,
65,AF33ANS.JPG,forår_compressed.wav,positive,babble_9.wav,cirkel_reversed.wav,humor_reversed.wav,,,,,0,39,39,39,2,0.3779921531677246,6702,001,2025-11-24_10-32-28,
195,AM34ANS.JPG,bifald_compressed.wav,positive,babble_28.wav,oprør_reversed.wav,skyldig_reversed.wav,,,,,0,40,40,40,3,0.40297484397888184,6702,001,2025-11-24_10-32-28,
53,AM35HAS.JPG,kage_compressed.wav,positive,babble_33.wav,avis_reversed.wav,knude_reversed.wav,,,,,0,41,41,41,6,0.5159769058227539,6702,001,2025-11-24_10-32-28,
138,AF23ANS.JPG,skuffe_compressed.wav,negative,babble_48.wav,heldig_reversed.wav,ugle_reversed.wav,,,,,0,42,42,42,3,0.49666810035705566,6702,001,2025-11-24_10-32-28,
3,AM15NES.JPG,lærer_compressed.wav,neutral,babble_50.wav,cirkel_reversed.wav,papir_reversed.wav,,,,,0,43,43,43,4,0.4101550579071045,6702,001,2025-11-24_10-32-28,
98,AF12HAS.JPG,giftig_compressed.wav,negative,babble_84.wav,pjece_reversed.wav,flirte_reversed.wav,,,,,0,44,44,44,6,0.8801119327545166,6702,001,2025-11-24_10-32-28,
21,AM26NES.JPG,trussel_compressed.wav,negative,babble_14.wav,kæle_reversed.wav,giftig_reversed.wav,,,,,0,45,45,45,4,0.13176989555358887,6702,001,2025-11-24_10-32-28,
178,AM33NES.JPG,kugle_compressed.wav,neutral,babble_84.wav,vindue_reversed.wav,måned_reversed.wav,,,,,0,46,46,46,4,0.20205998420715332,6702,001,2025-11-24_10-32-28,
55,AF01HAS.JPG,SILENCE,no-prime,babble_48.wav,syndig_reversed.wav,bifald_reversed.wav,,,,,0,47,47,47,7,0.15439510345458984,6702,001,2025-11-24_10-32-28,
12,AM18ANS.JPG,latter_compressed.wav,positive,babble_74.wav,kiste_reversed.wav,tortur_reversed.wav,,,,,0,48,48,48,1,0.3113090991973877,6702,001,2025-11-24_10-32-28,
94,AF27ANS.JPG,SILENCE,no-prime,babble_51.wav,venlig_reversed.wav,illoyal_reversed.wav,,,,,0,49,49,49,2,0.463198184967041,6702,001,2025-11-24_10-32-28,
179,AF14NES.JPG,konkurs_compressed.wav,negative,babble_26.wav,ørken_reversed.wav,accept_reversed.wav,,,,,0,50,50,50,3,0.80519700050354,6702,001,2025-11-24_10-32-28,
64,AF08HAS.JPG,SILENCE,no-prime,babble_86.wav,venlig_reversed.wav,voldtægt_reversed.wav,,,,,0,51,51,51,7,0.19638609886169434,6702,001,2025-11-24_10-32-28,
5,AM22ANS.JPG,nøgle_compressed.wav,neutral,babble_49.wav,taxa_reversed.wav,kedel_reversed.wav,,,,,0,52,52,52,2,0.8781859874725342,6702,001,2025-11-24_10-32-28,
79,AF26ANS.JPG,SILENCE,no-prime,babble_44.wav,ledning_reversed.wav,luksus_reversed.wav,,,,,0,53,53,53,3,1.0161468982696533,6702,001,2025-11-24_10-32-28,
76,AF32NES.JPG,jubel_compressed.wav,positive,babble_41.wav,metal_reversed.wav,drukne_reversed.wav,,,,,0,54,54,54,5,0.4534142017364502,6702,001,2025-11-24_10-32-28,
191,AM31HAS.JPG,sæde_compressed.wav,neutral,babble_97.wav,varme_reversed.wav,fjendtlig_reversed.wav,,,,,0,55,55,55,6,0.3441951274871826,6702,001,2025-11-24_10-32-28,
36,AF35NES.JPG,kysse_compressed.wav,positive,babble_85.wav,fiasko_reversed.wav,syndig_reversed.wav,,,,,0,56,56,56,4,0.2590179443359375,6702,001,2025-11-24_10-32-28,
184,AM12HAS.JPG,skuffe_compressed.wav,negative,babble_80.wav,sexet_reversed.wav,putte_reversed.wav,,,,,0,57,57,57,9,0.36374902725219727,6702,001,2025-11-24_10-32-28,
25,AF06NES.JPG,beundret_compressed.wav,positive,babble_65.wav,glæde_reversed.wav,illoyal_reversed.wav,,,,,0,58,58,58,4,0.5954070091247559,6702,001,2025-11-24_10-32-28,
130,AF11ANS.JPG,nonne_compressed.wav,neutral,babble_86.wav,kiste_reversed.wav,offer_reversed.wav,,,,,0,59,59,59,3,1.6391959190368652,6702,001,2025-11-24_10-32-28,
81,AM32NES.JPG,beundret_compressed.wav,positive,babble_75.wav,ugle_reversed.wav,koldbrand_reversed.wav,,,,,0,60,60,60,4,0.572998046875,6702,001,2025-11-24_10-32-28,
35,AM26HAS.JPG,bombe_compressed.wav,negative,babble_97.wav,nedbrud_reversed.wav,engel_reversed.wav,,,,,0,61,61,61,7,0.357280969619751,6702,001,2025-11-24_10-32-28,
123,AF27HAS.JPG,kugle_compressed.wav,neutral,babble_96.wav,patent_reversed.wav,pjece_reversed.wav,,,,,0,62,62,62,8,0.8395330905914307,6702,001,2025-11-24_10-32-28,
69,AM09HAS.JPG,SILENCE,no-prime,babble_92.wav,regnbue_reversed.wav,talent_reversed.wav,,,,,0,63,63,63,8,0.47343993186950684,6702,001,2025-11-24_10-32-28,
70,AM14HAS.JPG,succes_compressed.wav,positive,babble_56.wav,traume_reversed.wav,ørken_reversed.wav,,,,,0,64,64,64,7,1.2227001190185547,6702,001,2025-11-24_10-32-28,
187,AF14HAS.JPG,sejre_compressed.wav,positive,babble_37.wav,metal_reversed.wav,sollys_reversed.wav,,,,,0,65,65,65,7,0.8578829765319824,6702,001,2025-11-24_10-32-28,
168,AM34HAS.JPG,oprørt_compressed.wav,negative,babble_51.wav,blomstre_reversed.wav,bange_reversed.wav,,,,,0,66,66,66,8,0.5968000888824463,6702,001,2025-11-24_10-32-28,
74,AM18HAS.JPG,modgang_compressed.wav,negative,babble_23.wav,redning_reversed.wav,fase_reversed.wav,,,,,0,67,67,67,7,0.24206185340881348,6702,001,2025-11-24_10-32-28,
182,AM29NES.JPG,voldtægt_compressed.wav,negative,babble_28.wav,tumor_reversed.wav,røver_reversed.wav,,,,,0,68,68,68,3,0.3340630531311035,6702,001,2025-11-24_10-32-28,
177,AM04ANS.JPG,ønske_compressed.wav,positive,babble_91.wav,nøgle_reversed.wav,brutal_reversed.wav,,,,,0,69,69,69,2,0.2820441722869873,6702,001,2025-11-24_10-32-28,
140,AF17NES.JPG,hjerte_compressed.wav,positive,babble_25.wav,mester_reversed.wav,beskidt_reversed.wav,,,,,0,70,70,70,4,0.27613210678100586,6702,001,2025-11-24_10-32-28,
58,AM07HAS.JPG,morder_compressed.wav,negative,babble_80.wav,gade_reversed.wav,finger_reversed.wav,,,,,0,71,71,71,8,0.20417094230651855,6702,001,2025-11-24_10-32-28,
132,AF03ANS.JPG,tumor_compressed.wav,negative,babble_26.wav,salat_reversed.wav,kæle_reversed.wav,,,,,0,72,72,72,2,0.871121883392334,6702,001,2025-11-24_10-32-28,
165,AF23HAS.JPG,forkert_compressed.wav,negative,babble_83.wav,trofæ_reversed.wav,putte_reversed.wav,,,,,0,73,73,73,6,0.27585411071777344,6702,001,2025-11-24_10-32-28,
128,AM30ANS.JPG,SILENCE,no-prime,babble_7.wav,gaffel_reversed.wav,nonne_reversed.wav,,,,,0,74,74,74,3,0.09318900108337402,6702,001,2025-11-24_10-32-28,
23,AF24HAS.JPG,rådden_compressed.wav,negative,babble_59.wav,slagtning_reversed.wav,ønske_reversed.wav,,,,,0,75,75,75,9,0.24953198432922363,6702,001,2025-11-24_10-32-28,
186,AM21ANS.JPG,SILENCE,no-prime,babble_74.wav,bygning_reversed.wav,knude_reversed.wav,,,,,0,76,76,76,2,0.628896951675415,6702,001,2025-11-24_10-32-28,
27,AM35ANS.JPG,penge_compressed.wav,positive,babble_47.wav,smerte_reversed.wav,succes_reversed.wav,,,,,0,77,77,77,2,0.36533689498901367,6702,001,2025-11-24_10-32-28,
4,AM16NES.JPG,voldtægt_compressed.wav,negative,babble_12.wav,forpint_reversed.wav,kontor_reversed.wav,,,,,0,78,78,78,3,1.036841869354248,6702,001,2025-11-24_10-32-28,
121,AM22NES.JPG,musik_compressed.wav,positive,babble_4.wav,gaffel_reversed.wav,albue_reversed.wav,,,,,0,79,79,79,4,0.6806468963623047,6702,001,2025-11-24_10-32-28,
82,AF14ANS.JPG,genstand_compressed.wav,neutral,babble_53.wav,opstemt_reversed.wav,patent_reversed.wav,,,,,0,80,80,80,3,1.0959999561309814,6702,001,2025-11-24_10-32-28,
88,AM28HAS.JPG,udskud_compressed.wav,negative,babble_50.wav,kærtegn_reversed.wav,forkert_reversed.wav,,,,,0,81,81,81,7,0.7580409049987793,6702,001,2025-11-24_10-32-28,
155,AF20ANS.JPG,avis_compressed.wav,neutral,babble_43.wav,trofæ_reversed.wav,sikker_reversed.wav,,,,,0,82,82,82,2,1.0392770767211914,6702,001,2025-11-24_10-32-28,
99,AF27NES.JPG,fængsel_compressed.wav,negative,babble_48.wav,rigdom_reversed.wav,gade_reversed.wav,,,,,0,83,83,83,4,3.896129846572876,6702,001,2025-11-24_10-32-28,
117,AF01NES.JPG,røver_compressed.wav,negative,babble_25.wav,glæde_reversed.wav,rådden_reversed.wav,,,,,0,84,84,84,5,0.30194592475891113,6702,001,2025-11-24_10-32-28,
49,AM10NES.JPG,borddug_compressed.wav,neutral,babble_6.wav,fedme_reversed.wav,nøgle_reversed.wav,,,,,0,85,85,85,5,0.36000680923461914,6702,001,2025-11-24_10-32-28,
20,AM33ANS.JPG,SILENCE,no-prime,babble_16.wav,konge_reversed.wav,oprør_reversed.wav,,,,,0,86,86,86,4,1.2340869903564453,6702,001,2025-11-24_10-32-28,
170,AM14ANS.JPG,flirte_compressed.wav,positive,babble_35.wav,pjece_reversed.wav,slagtning_reversed.wav,,,,,0,87,87,87,3,0.50860595703125,6702,001,2025-11-24_10-32-28,
173,AF21NES.JPG,SILENCE,no-prime,babble_90.wav,sollys_reversed.wav,viden_reversed.wav,,,,,0,88,88,88,4,0.5797669887542725,6702,001,2025-11-24_10-32-28,
153,AF31NES.JPG,offer_compressed.wav,negative,babble_4.wav,fjollet_reversed.wav,grimme_reversed.wav,,,,,0,89,89,89,5,0.5002849102020264,6702,001,2025-11-24_10-32-28,
43,AF22ANS.JPG,afvist_compressed.wav,negative,babble_5.wav,vandal_reversed.wav,fase_reversed.wav,,,,,0,90,90,90,3,0.8152320384979248,6702,001,2025-11-24_10-32-28,
143,AM33HAS.JPG,syndig_compressed.wav,negative,babble_79.wav,sæde_reversed.wav,pude_reversed.wav,,,,,0,91,91,91,4,0.29942798614501953,6702,001,2025-11-24_10-32-28,
189,AF13NES.JPG,illoyal_compressed.wav,negative,babble_28.wav,nøgle_reversed.wav,festlig_reversed.wav,,,,,0,92,92,92,5,0.1451871395111084,6702,001,2025-11-24_10-32-28,
145,AF11HAS.JPG,baby_compressed.wav,positive,babble_68.wav,djævel_reversed.wav,pervers_reversed.wav,,,,,0,93,93,93,8,0.26108884811401367,6702,001,2025-11-24_10-32-28,
59,AF13ANS.JPG,SILENCE,no-prime,babble_95.wav,magisk_reversed.wav,talent_reversed.wav,,,,,0,94,94,94,3,0.7041552066802979,6702,001,2025-11-24_10-32-28,
115,AM02ANS.JPG,salat_compressed.wav,neutral,babble_50.wav,blomstre_reversed.wav,spænding_reversed.wav,,,,,0,95,95,95,3,0.21273517608642578,6702,001,2025-11-24_10-32-28,
102,AF15HAS.JPG,himmel_compressed.wav,positive,babble_69.wav,bygning_reversed.wav,affald_reversed.wav,,,,,0,96,96,96,8,2.901815176010132,6702,001,2025-11-24_10-32-28,
87,AF26HAS.JPG,djævel_compressed.wav,negative,babble_68.wav,brænde_reversed.wav,bygning_reversed.wav,,,,,0,97,97,97,7,0.44446301460266113,6702,001,2025-11-24_10-32-28,
41,AM12NES.JPG,kvæles_compressed.wav,negative,babble_29.wav,poesi_reversed.wav,rådden_reversed.wav,,,,,0,98,98,98,5,0.361997127532959,6702,001,2025-11-24_10-32-28,
50,AM12ANS.JPG,SILENCE,no-prime,babble_24.wav,kedel_reversed.wav,konge_reversed.wav,,,,,0,99,99,99,3,0.8537850379943848,6702,001,2025-11-24_10-32-28,
60,AM09ANS.JPG,putte_compressed.wav,positive,babble_12.wav,oprør_reversed.wav,kiste_reversed.wav,,,,,0,100,100,100,2,0.5624699592590332,6702,001,2025-11-24_10-32-28,
200,AF29NES.JPG,SILENCE,no-prime,babble_11.wav,blodig_reversed.wav,kiste_reversed.wav,,,,,0,101,101,101,4,0.44821691513061523,6702,001,2025-11-24_10-32-28,
199,AM20ANS.JPG,sandhed_compressed.wav,positive,babble_34.wav,lækker_reversed.wav,fiasko_reversed.wav,,,,,0,102,102,102,2,0.5143299102783203,6702,001,2025-11-24_10-32-28,
7,AF24ANS.JPG,SILENCE,no-prime,babble_89.wav,hånlig_reversed.wav,bifald_reversed.wav,,,,,0,103,103,103,2,0.2330629825592041,6702,001,2025-11-24_10-32-28,
172,AF28HAS.JPG,SILENCE,no-prime,babble_66.wav,vandal_reversed.wav,måned_reversed.wav,,,,,0,104,104,104,7,0.03749394416809082,6702,001,2025-11-24_10-32-28,
198,AM23NES.JPG,voldtægt_compressed.wav,negative,babble_8.wav,dæmon_reversed.wav,misbrug_reversed.wav,,,,,0,105,105,105,3,0.3905339241027832,6702,001,2025-11-24_10-32-28,
114,AF33HAS.JPG,ensom_compressed.wav,negative,babble_73.wav,sindssyg_reversed.wav,passion_reversed.wav,,,,,0,106,106,106,9,0.43092918395996094,6702,001,2025-11-24_10-32-28,
46,AF16HAS.JPG,skuffe_compressed.wav,negative,babble_99.wav,papir_reversed.wav,drukne_reversed.wav,,,,,0,107,107,107,7,0.36121201515197754,6702,001,2025-11-24_10-32-28,
162,AM01HAS.JPG,SILENCE,no-prime,babble_59.wav,vandal_reversed.wav,sindssyg_reversed.wav,,,,,0,108,108,108,8,0.6379330158233643,6702,001,2025-11-24_10-32-28,
134,AF15NES.JPG,lækker_compressed.wav,positive,babble_77.wav,flirte_reversed.wav,festlig_reversed.wav,,,,,0,109,109,109,4,0.7246270179748535,6702,001,2025-11-24_10-32-28,
89,AM11NES.JPG,rigdom_compressed.wav,positive,babble_76.wav,humor_reversed.wav,trussel_reversed.wav,,,,,0,110,110,110,4,0.4668920040130615,6702,001,2025-11-24_10-32-28,
40,AF01ANS.JPG,SILENCE,no-prime,babble_93.wav,gave_reversed.wav,trofæ_reversed.wav,,,,,0,111,111,111,3,0.422839879989624,6702,001,2025-11-24_10-32-28,
192,AF09HAS.JPG,SILENCE,no-prime,babble_0.wav,frygtsom_reversed.wav,skyldig_reversed.wav,,,,,0,112,112,112,8,1.5197038650512695,6702,001,2025-11-24_10-32-28,
133,AF03HAS.JPG,bange_compressed.wav,negative,babble_19.wav,utro_reversed.wav,fase_reversed.wav,,,,,0,113,113,113,7,0.6843619346618652,6702,001,2025-11-24_10-32-28,
72,AF02ANS.JPG,krise_compressed.wav,negative,babble_26.wav,museum_reversed.wav,vandfald_reversed.wav,,,,,0,114,114,114,3,1.5035099983215332,6702,001,2025-11-24_10-32-28,
116,AM26ANS.JPG,luder_compressed.wav,negative,babble_32.wav,maling_reversed.wav,talent_reversed.wav,,,,,0,115,115,115,3,0.334536075592041,6702,001,2025-11-24_10-32-28,
26,AF25NES.JPG,SILENCE,no-prime,babble_8.wav,putte_reversed.wav,albue_reversed.wav,,,,,0,116,116,116,4,0.5876960754394531,6702,001,2025-11-24_10-32-28,
104,AM09NES.JPG,SILENCE,no-prime,babble_8.wav,trofæ_reversed.wav,rotte_reversed.wav,,,,,0,117,117,117,5,0.3304932117462158,6702,001,2025-11-24_10-32-28,
163,AM35NES.JPG,SILENCE,no-prime,babble_66.wav,patent_reversed.wav,ørken_reversed.wav,,,,,0,118,118,118,5,0.31598687171936035,6702,001,2025-11-24_10-32-28,
73,AF21HAS.JPG,afvist_compressed.wav,negative,babble_36.wav,fiasko_reversed.wav,natur_reversed.wav,,,,,0,119,119,119,9,0.3559129238128662,6702,001,2025-11-24_10-32-28,
174,AF20HAS.JPG,motor_compressed.wav,neutral,babble_12.wav,genert_reversed.wav,gidsel_reversed.wav,,,,,0,120,120,120,8,0.36562514305114746,6702,001,2025-11-24_10-32-28,
33,AM23ANS.JPG,sexet_compressed.wav,positive,babble_31.wav,krise_reversed.wav,skønhed_reversed.wav,,,,,0,121,121,121,2,0.31789493560791016,6702,001,2025-11-24_10-32-28,
135,AF17HAS.JPG,konge_compressed.wav,positive,babble_51.wav,bange_reversed.wav,grusom_reversed.wav,,,,,0,122,122,122,8,0.2985808849334717,6702,001,2025-11-24_10-32-28,
10,AM15HAS.JPG,talent_compressed.wav,positive,babble_31.wav,misbrug_reversed.wav,salat_reversed.wav,,,,,0,123,123,123,8,0.28474998474121094,6702,001,2025-11-24_10-32-28,
83,AM25ANS.JPG,rotte_compressed.wav,negative,babble_2.wav,bombe_reversed.wav,glæde_reversed.wav,,,,,0,124,124,124,3,0.8206639289855957,6702,001,2025-11-24_10-32-28,
194,AM17NES.JPG,mave_compressed.wav,neutral,babble_38.wav,ugle_reversed.wav,fjollet_reversed.wav,,,,,0,125,125,125,4,0.43105101585388184,6702,001,2025-11-24_10-32-28,
2,AM08NES.JPG,dæmon_compressed.wav,negative,babble_10.wav,slagtning_reversed.wav,regnbue_reversed.wav,,,,,0,126,126,126,3,1.6893551349639893,6702,001,2025-11-24_10-32-28,
107,AM07ANS.JPG,ørken_compressed.wav,negative,babble_64.wav,traume_reversed.wav,skyldig_reversed.wav,,,,,0,127,127,127,2,1.1237878799438477,6702,001,2025-11-24_10-32-28,
151,AF18ANS.JPG,ferie_compressed.wav,positive,babble_9.wav,spise_reversed.wav,flirte_reversed.wav,,,,,0,128,128,128,2,0.5203161239624023,6702,001,2025-11-24_10-32-28,
193,AM06ANS.JPG,blodig_compressed.wav,negative,babble_78.wav,syndig_reversed.wav,sollys_reversed.wav,,,,,0,129,129,129,2,0.5144588947296143,6702,001,2025-11-24_10-32-28,
84,AM19NES.JPG,metal_compressed.wav,neutral,babble_51.wav,bombe_reversed.wav,kujon_reversed.wav,,,,,0,130,130,130,5,0.5109689235687256,6702,001,2025-11-24_10-32-28,
148,AM28ANS.JPG,spænding_compressed.wav,positive,babble_58.wav,leder_reversed.wav,violin_reversed.wav,,,,,0,131,131,131,1,0.3391268253326416,6702,001,2025-11-24_10-32-28,
154,AF32ANS.JPG,konkurs_compressed.wav,negative,babble_27.wav,rædsel_reversed.wav,ankel_reversed.wav,,,,,0,132,132,132,3,0.32058215141296387,6702,001,2025-11-24_10-32-28,
124,AM15ANS.JPG,SILENCE,no-prime,babble_31.wav,borddug_reversed.wav,trofæ_reversed.wav,,,,,0,133,133,133,1,0.39954400062561035,6702,001,2025-11-24_10-32-28,
63,AM03ANS.JPG,grimme_compressed.wav,negative,babble_41.wav,nedbrud_reversed.wav,glæde_reversed.wav,,,,,0,134,134,134,2,0.3715329170227051,6702,001,2025-11-24_10-32-28,
24,AF23NES.JPG,skade_compressed.wav,negative,babble_36.wav,engel_reversed.wav,rædsel_reversed.wav,,,,,0,135,135,135,5,0.43647289276123047,6702,001,2025-11-24_10-32-28,
68,AM28NES.JPG,SILENCE,no-prime,babble_35.wav,fase_reversed.wav,slave_reversed.wav,,,,,0,136,136,136,4,0.1459510326385498,6702,001,2025-11-24_10-32-28,
96,AF15ANS.JPG,sikker_compressed.wav,positive,babble_36.wav,nonsens_reversed.wav,himmel_reversed.wav,,,,,0,137,137,137,2,0.9250741004943848,6702,001,2025-11-24_10-32-28,
9,AF08NES.JPG,affald_compressed.wav,negative,babble_89.wav,skade_reversed.wav,sandhed_reversed.wav,,,,,0,138,138,138,4,0.16465997695922852,6702,001,2025-11-24_10-32-28,
75,AM17HAS.JPG,diamant_compressed.wav,positive,babble_39.wav,kugle_reversed.wav,frihed_reversed.wav,,,,,0,139,139,139,7,0.46297407150268555,6702,001,2025-11-24_10-32-28,
1,AM06NES.JPG,jubel_compressed.wav,positive,babble_4.wav,bombe_reversed.wav,nonsens_reversed.wav,,,,,0,140,140,140,4,0.3265211582183838,6702,001,2025-11-24_10-32-28,
44,AM16HAS.JPG,redning_compressed.wav,positive,babble_4.wav,dæmpet_reversed.wav,respekt_reversed.wav,,,,,0,141,141,141,9,0.02891087532043457,6702,001,2025-11-24_10-32-28,
137,AF12ANS.JPG,tortur_compressed.wav,negative,babble_12.wav,koldbrand_reversed.wav,skade_reversed.wav,,,,,0,142,142,142,3,0.8311419486999512,6702,001,2025-11-24_10-32-28,
39,AF02NES.JPG,misbrug_compressed.wav,negative,babble_67.wav,himmel_reversed.wav,genstand_reversed.wav,,,,,0,143,143,143,4,0.27201390266418457,6702,001,2025-11-24_10-32-28,
62,AM05HAS.JPG,SILENCE,no-prime,babble_12.wav,fjendtlig_reversed.wav,trussel_reversed.wav,,,,,0,144,144,144,8,0.4623100757598877,6702,001,2025-11-24_10-32-28,
119,AF07HAS.JPG,ferie_compressed.wav,positive,babble_34.wav,festlig_reversed.wav,ugle_reversed.wav,,,,,0,145,145,145,7,0.1913750171661377,6702,001,2025-11-24_10-32-28,
51,AM19HAS.JPG,søsyg_compressed.wav,negative,babble_43.wav,luksus_reversed.wav,forpint_reversed.wav,,,,,0,146,146,146,8,0.4629979133605957,6702,001,2025-11-24_10-32-28,
103,AF25ANS.JPG,cirkel_compressed.wav,neutral,babble_26.wav,finger_reversed.wav,leder_reversed.wav,,,,,0,147,147,147,2,1.5498559474945068,6702,001,2025-11-24_10-32-28,
166,AM20HAS.JPG,skuffe_compressed.wav,negative,babble_1.wav,vindue_reversed.wav,krise_reversed.wav,,,,,0,148,148,148,7,2.9072370529174805,6702,001,2025-11-24_10-32-28,
131,AF13HAS.JPG,musik_compressed.wav,positive,babble_99.wav,sexet_reversed.wav,flirte_reversed.wav,,,,,0,149,149,149,8,0.2742738723754883,6702,001,2025-11-24_10-32-28,
6,AM13HAS.JPG,ønske_compressed.wav,positive,babble_11.wav,giftig_reversed.wav,konge_reversed.wav,,,,,0,150,150,150,6,0.177947998046875,6702,001,2025-11-24_10-32-28,
97,AF18HAS.JPG,syndig_compressed.wav,negative,babble_2.wav,fiasko_reversed.wav,gade_reversed.wav,,,,,0,151,151,151,7,0.24118494987487793,6702,001,2025-11-24_10-32-28,
169,AM03NES.JPG,SILENCE,no-prime,babble_53.wav,himlen_reversed.wav,redskab_reversed.wav,,,,,0,152,152,152,4,0.3345968723297119,6702,001,2025-11-24_10-32-28,
32,AF16ANS.JPG,natur_compressed.wav,positive,babble_20.wav,hage_reversed.wav,syndig_reversed.wav,,,,,0,153,153,153,2,0.4250810146331787,6702,001,2025-11-24_10-32-28,
85,AM04HAS.JPG,ydmyg_compressed.wav,neutral,babble_20.wav,sygdom_reversed.wav,rabies_reversed.wav,,,,,0,154,154,154,8,0.36264681816101074,6702,001,2025-11-24_10-32-28,
122,AF20NES.JPG,afvist_compressed.wav,negative,babble_97.wav,lærer_reversed.wav,bifald_reversed.wav,,,,,0,155,155,155,3,0.23002195358276367,6702,001,2025-11-24_10-32-28,
8,AM02NES.JPG,konkurs_compressed.wav,negative,babble_49.wav,succes_reversed.wav,albue_reversed.wav,,,,,0,156,156,156,3,0.3138449192047119,6702,001,2025-11-24_10-32-28,
136,AF30HAS.JPG,sæde_compressed.wav,neutral,babble_35.wav,pervers_reversed.wav,ferie_reversed.wav,,,,,0,157,157,157,7,0.24117016792297363,6702,001,2025-11-24_10-32-28,
139,AM31ANS.JPG,spænding_compressed.wav,positive,babble_89.wav,banner_reversed.wav,statue_reversed.wav,,,,,0,158,158,158,1,0.31810998916625977,6702,001,2025-11-24_10-32-28,
196,AF10ANS.JPG,gade_compressed.wav,neutral,babble_73.wav,måned_reversed.wav,oprør_reversed.wav,,,,,0,159,159,159,1,0.22744417190551758,6702,001,2025-11-24_10-32-28,
54,AF07ANS.JPG,forpint_compressed.wav,negative,babble_94.wav,smerte_reversed.wav,opstemt_reversed.wav,,,,,0,160,160,160,1,0.296130895614624,6702,001,2025-11-24_10-32-28,
77,AM17ANS.JPG,frygtsom_compressed.wav,negative,babble_86.wav,dæmon_reversed.wav,magisk_reversed.wav,,,,,0,161,161,161,1,0.28249216079711914,6702,001,2025-11-24_10-32-28,
57,AM08HAS.JPG,maling_compressed.wav,neutral,babble_87.wav,salat_reversed.wav,brutal_reversed.wav,,,,,0,162,162,162,7,0.13326692581176758,6702,001,2025-11-24_10-32-28,
167,AF24NES.JPG,trussel_compressed.wav,negative,babble_23.wav,hader_reversed.wav,tortur_reversed.wav,,,,,0,163,163,163,5,0.35251903533935547,6702,001,2025-11-24_10-32-28,
95,AF08ANS.JPG,SILENCE,no-prime,babble_76.wav,morder_reversed.wav,beskidt_reversed.wav,,,,,0,164,164,164,4,0.24640989303588867,6702,001,2025-11-24_10-32-28,
45,AF34HAS.JPG,kysse_compressed.wav,positive,babble_44.wav,festlig_reversed.wav,museum_reversed.wav,,,,,0,165,165,165,6,0.2547140121459961,6702,001,2025-11-24_10-32-28,
71,AM29HAS.JPG,væmmes_compressed.wav,negative,babble_96.wav,oprørt_reversed.wav,boble_reversed.wav,,,,,0,166,166,166,7,0.49288392066955566,6702,001,2025-11-24_10-32-28,
42,AF25HAS.JPG,SILENCE,no-prime,babble_18.wav,stjerne_reversed.wav,museum_reversed.wav,,,,,0,167,167,167,8,0.36141109466552734,6702,001,2025-11-24_10-32-28,
125,AM07NES.JPG,kage_compressed.wav,positive,babble_34.wav,rabies_reversed.wav,mave_reversed.wav,,,,,0,168,168,168,3,0.42960596084594727,6702,001,2025-11-24_10-32-28,
18,AM21HAS.JPG,latter_compressed.wav,positive,babble_35.wav,traume_reversed.wav,konge_reversed.wav,,,,,0,169,169,169,8,0.3160569667816162,6702,001,2025-11-24_10-32-28,
181,AF19NES.JPG,djævel_compressed.wav,negative,babble_40.wav,selvmord_reversed.wav,trofæ_reversed.wav,,,,,0,170,170,170,5,0.25873303413391113,6702,001,2025-11-24_10-32-28,
126,AF28ANS.JPG,sandhed_compressed.wav,positive,babble_1.wav,rabies_reversed.wav,pervers_reversed.wav,,,,,0,171,171,171,2,0.2897970676422119,6702,001,2025-11-24_10-32-28,
105,AF04NES.JPG,motor_compressed.wav,neutral,babble_63.wav,bange_reversed.wav,vindue_reversed.wav,,,,,0,172,172,172,4,0.08042597770690918,6702,001,2025-11-24_10-32-28,
101,AM01ANS.JPG,SILENCE,no-prime,babble_47.wav,sikker_reversed.wav,redskab_reversed.wav,,,,,0,173,173,173,3,0.574592113494873,6702,001,2025-11-24_10-32-28,
91,AM27NES.JPG,hader_compressed.wav,negative,babble_66.wav,kontor_reversed.wav,oprør_reversed.wav,,,,,0,174,174,174,4,0.4577760696411133,6702,001,2025-11-24_10-32-28,
28,AF04ANS.JPG,SILENCE,no-prime,babble_61.wav,affald_reversed.wav,glæde_reversed.wav,,,,,0,175,175,175,4,0.49965882301330566,6702,001,2025-11-24_10-32-28,
120,AM25HAS.JPG,affald_compressed.wav,negative,babble_37.wav,himlen_reversed.wav,viden_reversed.wav,,,,,0,176,176,176,9,0.20328593254089355,6702,001,2025-11-24_10-32-28,
142,AM29ANS.JPG,nøgle_compressed.wav,neutral,babble_99.wav,poesi_reversed.wav,brænde_reversed.wav,,,,,0,177,177,177,2,0.27301597595214844,6702,001,2025-11-24_10-32-28,
92,AF17ANS.JPG,metal_compressed.wav,neutral,babble_68.wav,affald_reversed.wav,skammel_reversed.wav,,,,,0,178,178,178,2,0.8632228374481201,6702,001,2025-11-24_10-32-28,
66,AM27ANS.JPG,himlen_compressed.wav,positive,babble_11.wav,fedme_reversed.wav,skade_reversed.wav,,,,,0,179,179,179,2,1.2933390140533447,6702,001,2025-11-24_10-32-28,
152,AM06HAS.JPG,forpint_compressed.wav,negative,babble_60.wav,banner_reversed.wav,djævel_reversed.wav,,,,,0,180,180,180,9,0.44274210929870605,6702,001,2025-11-24_10-32-28,
176,AM10HAS.JPG,engel_compressed.wav,positive,babble_92.wav,pervers_reversed.wav,marked_reversed.wav,,,,,0,181,181,181,8,0.38738489151000977,6702,001,2025-11-24_10-32-28,
175,AF31HAS.JPG,papir_compressed.wav,neutral,babble_90.wav,voldtægt_reversed.wav,metal_reversed.wav,,,,,0,182,182,182,9,0.2992119789123535,6702,001,2025-11-24_10-32-28,
30,AF18NES.JPG,voldtægt_compressed.wav,negative,babble_67.wav,spænding_reversed.wav,pude_reversed.wav,,,,,0,183,183,183,2,0.6742029190063477,6702,001,2025-11-24_10-32-28,
52,AM18NES.JPG,kujon_compressed.wav,negative,babble_45.wav,respekt_reversed.wav,skønhed_reversed.wav,,,,,0,184,184,184,3,1.0072319507598877,6702,001,2025-11-24_10-32-28,
188,AM16ANS.JPG,pude_compressed.wav,positive,babble_97.wav,vinde_reversed.wav,fjendtlig_reversed.wav,,,,,0,185,185,185,2,0.382235050201416,6702,001,2025-11-24_10-32-28,
17,AM11ANS.JPG,maling_compressed.wav,neutral,babble_77.wav,lampe_reversed.wav,ørken_reversed.wav,,,,,0,186,186,186,2,0.29621005058288574,6702,001,2025-11-24_10-32-28,
47,AF06HAS.JPG,putte_compressed.wav,positive,babble_43.wav,tilfreds_reversed.wav,mave_reversed.wav,,,,,0,187,187,187,7,0.12361407279968262,6702,001,2025-11-24_10-32-28,
197,AF04HAS.JPG,passion_compressed.wav,positive,babble_72.wav,nøgle_reversed.wav,rædsel_reversed.wav,,,,,0,188,188,188,7,0.09342408180236816,6702,001,2025-11-24_10-32-28,
78,AF10HAS.JPG,gratis_compressed.wav,positive,babble_36.wav,kæle_reversed.wav,enhed_reversed.wav,,,,,0,189,189,189,7,0.35852789878845215,6702,001,2025-11-24_10-32-28,
22,AF22HAS.JPG,sikker_compressed.wav,positive,babble_34.wav,sindssyg_reversed.wav,bygning_reversed.wav,,,,,0,190,190,190,8,0.2439100742340088,6702,001,2025-11-24_10-32-28,
171,AF22NES.JPG,feber_compressed.wav,negative,babble_25.wav,slagtning_reversed.wav,bombe_reversed.wav,,,,,0,191,191,191,4,0.4667379856109619,6702,001,2025-11-24_10-32-28,
190,AM30HAS.JPG,ankel_compressed.wav,neutral,babble_21.wav,misbrug_reversed.wav,slagtning_reversed.wav,,,,,0,192,192,192,6,1.987104892730713,6702,001,2025-11-24_10-32-28,
185,AF35HAS.JPG,illoyal_compressed.wav,negative,babble_87.wav,opstemt_reversed.wav,himmel_reversed.wav,,,,,0,193,193,193,8,0.33811306953430176,6702,001,2025-11-24_10-32-28,
