trial_i,face_file,prime_file,prime_valence,babbling_file,mask1_file,mask2_file,practice.thisRepN,practice.thisTrialN,practice.thisN,practice.thisIndex,main.thisRepN,main.thisTrialN,main.thisN,main.thisIndex,thisRow.t,notes,response_key,rt,Participant ID,Session,date,
76,AM27NES.JPG,slave_compressed.wav,negative,babble_44.wav,kiste_reversed.wav,sæde_reversed.wav,0,0,0,0,0,-1,-1,0,,,5,0.008054083002207335,6776,001,2025-12-04_13-57-34,
138,AM30ANS.JPG,morder_compressed.wav,negative,babble_36.wav,fjollet_reversed.wav,sollys_reversed.wav,0,1,1,1,0,-1,-1,0,,,1,0.745087290997617,6776,001,2025-12-04_13-57-34,
35,AF31HAS.JPG,succes_compressed.wav,positive,babble_44.wav,kujon_reversed.wav,tortur_reversed.wav,0,2,2,2,0,-1,-1,0,,,7,0.20715770800234168,6776,001,2025-12-04_13-57-34,
12,AM17NES.JPG,SILENCE,no-prime,babble_94.wav,beskidt_reversed.wav,søsyg_reversed.wav,0,3,3,3,0,-1,-1,0,,,4,6.992416457997024,6776,001,2025-12-04_13-57-34,
121,AM24HAS.JPG,latter_compressed.wav,positive,babble_55.wav,vinde_reversed.wav,skade_reversed.wav,0,4,4,4,0,-1,-1,0,,,5,9.165146625000489,6776,001,2025-12-04_13-57-34,
135,AF14HAS.JPG,SILENCE,no-prime,babble_81.wav,sygdom_reversed.wav,respekt_reversed.wav,0,5,5,5,0,-1,-1,0,,,6,2.2445833330020832,6776,001,2025-12-04_13-57-34,
96,AM14ANS.JPG,dæmpet_compressed.wav,neutral,babble_29.wav,fængsel_reversed.wav,fase_reversed.wav,,,,,0,0,0,0,,,3,1.5319553749977786,6776,001,2025-12-04_13-57-34,
165,AF14ANS.JPG,sygdom_compressed.wav,negative,babble_60.wav,ørken_reversed.wav,slave_reversed.wav,,,,,0,1,1,1,,,2,1.0475494999991497,6776,001,2025-12-04_13-57-34,
55,AF35HAS.JPG,sindssyg_compressed.wav,negative,babble_2.wav,bifald_reversed.wav,sexet_reversed.wav,,,,,0,2,2,2,,,7,0.752944750001916,6776,001,2025-12-04_13-57-34,
28,AF13HAS.JPG,taber_compressed.wav,negative,babble_80.wav,finger_reversed.wav,gidsel_reversed.wav,,,,,0,3,3,3,,,8,0.6832194160015206,6776,001,2025-12-04_13-57-34,
39,AM02HAS.JPG,slagtning_compressed.wav,negative,babble_44.wav,rabies_reversed.wav,ugle_reversed.wav,,,,,0,4,4,4,,,6,0.6472879169996304,6776,001,2025-12-04_13-57-34,
99,AF15HAS.JPG,rigdom_compressed.wav,positive,babble_10.wav,sejre_reversed.wav,latter_reversed.wav,,,,,0,5,5,5,,,8,0.5649767920003796,6776,001,2025-12-04_13-57-34,
125,AF08ANS.JPG,SILENCE,no-prime,babble_61.wav,skade_reversed.wav,metal_reversed.wav,,,,,0,6,6,6,,,3,0.5404493329988327,6776,001,2025-12-04_13-57-34,
58,AF20NES.JPG,passion_compressed.wav,positive,babble_56.wav,ønske_reversed.wav,beskidt_reversed.wav,,,,,0,7,7,7,,,3,0.36554058299952885,6776,001,2025-12-04_13-57-34,
111,AM18NES.JPG,sollys_compressed.wav,positive,babble_63.wav,fedme_reversed.wav,ankel_reversed.wav,,,,,0,8,8,8,,,2,0.8926125419966411,6776,001,2025-12-04_13-57-34,
36,AM08NES.JPG,gaffel_compressed.wav,neutral,babble_83.wav,accept_reversed.wav,passion_reversed.wav,,,,,0,9,9,9,,,2,2.39472170800218,6776,001,2025-12-04_13-57-34,
182,AM16NES.JPG,redskab_compressed.wav,neutral,babble_83.wav,mave_reversed.wav,sæde_reversed.wav,,,,,0,10,10,10,,,3,0.6043263329993351,6776,001,2025-12-04_13-57-34,
143,AM20ANS.JPG,feber_compressed.wav,negative,babble_58.wav,hader_reversed.wav,ledning_reversed.wav,,,,,0,11,11,11,,,2,0.835380708998855,6776,001,2025-12-04_13-57-34,
110,AM22HAS.JPG,SILENCE,no-prime,babble_84.wav,forfald_reversed.wav,leder_reversed.wav,,,,,0,12,12,12,,,8,0.8992886660016666,6776,001,2025-12-04_13-57-34,
79,AF26ANS.JPG,afskyr_compressed.wav,negative,babble_21.wav,avis_reversed.wav,brænde_reversed.wav,,,,,0,13,13,13,,,1,0.47425562500211527,6776,001,2025-12-04_13-57-34,
104,AM34ANS.JPG,SILENCE,no-prime,babble_76.wav,fjollet_reversed.wav,skyldig_reversed.wav,,,,,0,14,14,14,,,2,0.356090540997684,6776,001,2025-12-04_13-57-34,
107,AF17HAS.JPG,lampe_compressed.wav,neutral,babble_55.wav,forkert_reversed.wav,måned_reversed.wav,,,,,0,15,15,15,,,8,0.5167067910006153,6776,001,2025-12-04_13-57-34,
156,AM21NES.JPG,SILENCE,no-prime,babble_88.wav,banner_reversed.wav,morder_reversed.wav,,,,,0,16,16,16,,,3,0.32256691699876683,6776,001,2025-12-04_13-57-34,
163,AM20NES.JPG,nøgle_compressed.wav,neutral,babble_30.wav,sæde_reversed.wav,kontor_reversed.wav,,,,,0,17,17,17,,,2,3.125269083000603,6776,001,2025-12-04_13-57-34,
124,AF14NES.JPG,ugle_compressed.wav,neutral,babble_73.wav,salat_reversed.wav,kugle_reversed.wav,,,,,0,18,18,18,,,2,0.6715138330000627,6776,001,2025-12-04_13-57-34,
100,AF24ANS.JPG,affald_compressed.wav,negative,babble_4.wav,latter_reversed.wav,stjerne_reversed.wav,,,,,0,19,19,19,,,1,0.950080667000293,6776,001,2025-12-04_13-57-34,
3,AF18ANS.JPG,SILENCE,no-prime,babble_56.wav,finger_reversed.wav,viden_reversed.wav,,,,,0,20,20,20,,,2,0.6022970839985646,6776,001,2025-12-04_13-57-34,
56,AF25NES.JPG,SILENCE,no-prime,babble_12.wav,enhed_reversed.wav,hånlig_reversed.wav,,,,,0,21,21,21,,,3,0.781070708999323,6776,001,2025-12-04_13-57-34,
132,AM14NES.JPG,oprørt_compressed.wav,negative,babble_55.wav,gade_reversed.wav,leder_reversed.wav,,,,,0,22,22,22,,,5,0.9105272500019055,6776,001,2025-12-04_13-57-34,
196,AF32ANS.JPG,sygdom_compressed.wav,negative,babble_82.wav,rotte_reversed.wav,statue_reversed.wav,,,,,0,23,23,23,,,2,1.0217742909990193,6776,001,2025-12-04_13-57-34,
137,AM07NES.JPG,taber_compressed.wav,negative,babble_49.wav,kontor_reversed.wav,misbrug_reversed.wav,,,,,0,24,24,24,,,4,1.0866277499990247,6776,001,2025-12-04_13-57-34,
176,AM17HAS.JPG,frihed_compressed.wav,positive,babble_41.wav,bange_reversed.wav,ankel_reversed.wav,,,,,0,25,25,25,,,8,0.3505286250001518,6776,001,2025-12-04_13-57-34,
11,AM06NES.JPG,SILENCE,no-prime,babble_30.wav,forkert_reversed.wav,grimme_reversed.wav,,,,,0,26,26,26,,,3,0.45633791699947324,6776,001,2025-12-04_13-57-34,
17,AM16ANS.JPG,humor_compressed.wav,positive,babble_48.wav,morder_reversed.wav,koldbrand_reversed.wav,,,,,0,27,27,27,,,1,0.46197400000164635,6776,001,2025-12-04_13-57-34,
195,AF34NES.JPG,misbrug_compressed.wav,negative,babble_90.wav,kage_reversed.wav,ensom_reversed.wav,,,,,0,28,28,28,,,4,0.5051940829980595,6776,001,2025-12-04_13-57-34,
8,AF32NES.JPG,misbrug_compressed.wav,negative,babble_21.wav,spise_reversed.wav,latter_reversed.wav,,,,,0,29,29,29,,,4,0.5633441249992757,6776,001,2025-12-04_13-57-34,
128,AF31NES.JPG,voldtægt_compressed.wav,negative,babble_30.wav,vandal_reversed.wav,genert_reversed.wav,,,,,0,30,30,30,,,2,0.23343245899741305,6776,001,2025-12-04_13-57-34,
7,AM33HAS.JPG,venlig_compressed.wav,positive,babble_83.wav,finger_reversed.wav,nedbrud_reversed.wav,,,,,0,31,31,31,,,3,1.1487083329993766,6776,001,2025-12-04_13-57-34,
92,AF22ANS.JPG,SILENCE,no-prime,babble_44.wav,vindue_reversed.wav,affald_reversed.wav,,,,,0,32,32,32,,,1,0.6171323329981533,6776,001,2025-12-04_13-57-34,
194,AM13ANS.JPG,luksus_compressed.wav,positive,babble_0.wav,slagtning_reversed.wav,dæmon_reversed.wav,,,,,0,33,33,33,,,1,0.043353500001103384,6776,001,2025-12-04_13-57-34,
81,AF03NES.JPG,violin_compressed.wav,neutral,babble_67.wav,forpint_reversed.wav,gaffel_reversed.wav,,,,,0,34,34,34,,,4,0.8886023750019376,6776,001,2025-12-04_13-57-34,
13,AM10ANS.JPG,sexet_compressed.wav,positive,babble_39.wav,magisk_reversed.wav,fiasko_reversed.wav,,,,,0,35,35,35,,,1,0.47593966599743,6776,001,2025-12-04_13-57-34,
89,AM34HAS.JPG,engel_compressed.wav,positive,babble_0.wav,selvmord_reversed.wav,frygtsom_reversed.wav,,,,,0,36,36,36,,,8,0.44309520900060306,6776,001,2025-12-04_13-57-34,
191,AM12HAS.JPG,SILENCE,no-prime,babble_82.wav,pjece_reversed.wav,baby_reversed.wav,,,,,0,37,37,37,,,9,0.4590549170025042,6776,001,2025-12-04_13-57-34,
190,AF15NES.JPG,oprørt_compressed.wav,negative,babble_26.wav,viden_reversed.wav,tumor_reversed.wav,,,,,0,38,38,38,,,2,0.6576767080005084,6776,001,2025-12-04_13-57-34,
19,AM14HAS.JPG,kage_compressed.wav,positive,babble_67.wav,kujon_reversed.wav,viden_reversed.wav,,,,,0,39,39,39,,,8,0.8759354169997096,6776,001,2025-12-04_13-57-34,
38,AM33ANS.JPG,SILENCE,no-prime,babble_69.wav,bombe_reversed.wav,enhed_reversed.wav,,,,,0,40,40,40,,,2,0.6205980000013369,6776,001,2025-12-04_13-57-34,
127,AF22NES.JPG,metal_compressed.wav,neutral,babble_6.wav,natur_reversed.wav,giftig_reversed.wav,,,,,0,41,41,41,,,3,0.13233020899861003,6776,001,2025-12-04_13-57-34,
88,AM05HAS.JPG,regnbue_compressed.wav,positive,babble_49.wav,affald_reversed.wav,forfald_reversed.wav,,,,,0,42,42,42,,,9,0.6043446250005218,6776,001,2025-12-04_13-57-34,
181,AM28HAS.JPG,SILENCE,no-prime,babble_97.wav,himmel_reversed.wav,rædsel_reversed.wav,,,,,0,43,43,43,,,8,2.27027204100159,6776,001,2025-12-04_13-57-34,
144,AM05ANS.JPG,sikker_compressed.wav,positive,babble_21.wav,marked_reversed.wav,morder_reversed.wav,,,,,0,44,44,44,,,1,0.5034812919984688,6776,001,2025-12-04_13-57-34,
29,AF11HAS.JPG,rådden_compressed.wav,negative,babble_42.wav,djævel_reversed.wav,rådden_reversed.wav,,,,,0,45,45,45,,,8,0.5292782500000612,6776,001,2025-12-04_13-57-34,
4,AM23ANS.JPG,trussel_compressed.wav,negative,babble_15.wav,tortur_reversed.wav,genstand_reversed.wav,,,,,0,46,46,46,,,2,0.8717390419988078,6776,001,2025-12-04_13-57-34,
119,AM04HAS.JPG,statue_compressed.wav,neutral,babble_40.wav,slagtning_reversed.wav,vindue_reversed.wav,,,,,0,47,47,47,,,8,0.7399946660007117,6776,001,2025-12-04_13-57-34,
113,AF27ANS.JPG,jubel_compressed.wav,positive,babble_65.wav,vindue_reversed.wav,passion_reversed.wav,,,,,0,48,48,48,,,2,0.9753109169978416,6776,001,2025-12-04_13-57-34,
131,AM25ANS.JPG,SILENCE,no-prime,babble_64.wav,enhed_reversed.wav,sollys_reversed.wav,,,,,0,49,49,49,,,2,0.46894308300034027,6776,001,2025-12-04_13-57-34,
167,AF30HAS.JPG,skyldig_compressed.wav,negative,babble_49.wav,fjollet_reversed.wav,tumor_reversed.wav,,,,,0,50,50,50,,,8,0.3893808329994499,6776,001,2025-12-04_13-57-34,
109,AM12NES.JPG,trussel_compressed.wav,negative,babble_27.wav,kærtegn_reversed.wav,fiasko_reversed.wav,,,,,0,51,51,51,,,5,0.962999375002255,6776,001,2025-12-04_13-57-34,
155,AF30ANS.JPG,afvist_compressed.wav,negative,babble_57.wav,traume_reversed.wav,krise_reversed.wav,,,,,0,52,52,52,,,2,0.6254757909991895,6776,001,2025-12-04_13-57-34,
48,AF04HAS.JPG,statue_compressed.wav,neutral,babble_3.wav,dæmon_reversed.wav,kujon_reversed.wav,,,,,0,53,53,53,,,7,0.8413214160027565,6776,001,2025-12-04_13-57-34,
199,AF02ANS.JPG,finger_compressed.wav,neutral,babble_19.wav,hånlig_reversed.wav,fængsel_reversed.wav,,,,,0,54,54,54,,,4,2.2485553339975013,6776,001,2025-12-04_13-57-34,
15,AM12ANS.JPG,krise_compressed.wav,negative,babble_63.wav,syndig_reversed.wav,oprør_reversed.wav,,,,,0,55,55,55,,,2,1.1763439160022244,6776,001,2025-12-04_13-57-34,
86,AM05NES.JPG,SILENCE,no-prime,babble_94.wav,selvmord_reversed.wav,pude_reversed.wav,,,,,0,56,56,56,,,3,0.7818916669966711,6776,001,2025-12-04_13-57-34,
25,AF22HAS.JPG,SILENCE,no-prime,babble_90.wav,traume_reversed.wav,papir_reversed.wav,,,,,0,57,57,57,,,8,0.5556867499981308,6776,001,2025-12-04_13-57-34,
162,AM15HAS.JPG,affald_compressed.wav,negative,babble_86.wav,syndig_reversed.wav,respekt_reversed.wav,,,,,0,58,58,58,,,8,0.815328499997122,6776,001,2025-12-04_13-57-34,
118,AM04NES.JPG,rotte_compressed.wav,negative,babble_11.wav,accept_reversed.wav,maling_reversed.wav,,,,,0,59,59,59,,,4,1.5178271669974492,6776,001,2025-12-04_13-57-34,
173,AM11HAS.JPG,hjerte_compressed.wav,positive,babble_34.wav,rædsel_reversed.wav,gidsel_reversed.wav,,,,,0,60,60,60,,,8,0.7456674999993993,6776,001,2025-12-04_13-57-34,
130,AF18HAS.JPG,utro_compressed.wav,negative,babble_66.wav,hage_reversed.wav,fedme_reversed.wav,,,,,0,61,61,61,,,9,1.064433999999892,6776,001,2025-12-04_13-57-34,
18,AF18NES.JPG,fedme_compressed.wav,negative,babble_49.wav,knude_reversed.wav,selvmord_reversed.wav,,,,,0,62,62,62,,,4,0.5680039580001903,6776,001,2025-12-04_13-57-34,
106,AF12NES.JPG,SILENCE,no-prime,babble_26.wav,banner_reversed.wav,koldbrand_reversed.wav,,,,,0,63,63,63,,,4,0.1565643750000163,6776,001,2025-12-04_13-57-34,
42,AF34ANS.JPG,frihed_compressed.wav,positive,babble_4.wav,feber_reversed.wav,fase_reversed.wav,,,,,0,64,64,64,,,3,0.8806530000001658,6776,001,2025-12-04_13-57-34,
102,AM07HAS.JPG,sejre_compressed.wav,positive,babble_90.wav,maling_reversed.wav,nonne_reversed.wav,,,,,0,65,65,65,,,8,0.6912683749978896,6776,001,2025-12-04_13-57-34,
27,AM35HAS.JPG,nøgle_compressed.wav,neutral,babble_69.wav,skuffe_reversed.wav,himlen_reversed.wav,,,,,0,66,66,66,,,6,0.8206815840021591,6776,001,2025-12-04_13-57-34,
9,AF12HAS.JPG,røver_compressed.wav,negative,babble_12.wav,plakat_reversed.wav,latter_reversed.wav,,,,,0,67,67,67,,,6,0.5964915000004112,6776,001,2025-12-04_13-57-34,
175,AM03HAS.JPG,traume_compressed.wav,negative,babble_24.wav,fedme_reversed.wav,jubel_reversed.wav,,,,,0,68,68,68,,,6,1.2285336250024557,6776,001,2025-12-04_13-57-34,
184,AF01NES.JPG,ugle_compressed.wav,neutral,babble_17.wav,varme_reversed.wav,fiasko_reversed.wav,,,,,0,69,69,69,,,4,0.5601284170006693,6776,001,2025-12-04_13-57-34,
98,AM09HAS.JPG,frygtsom_compressed.wav,negative,babble_39.wav,dæmon_reversed.wav,slave_reversed.wav,,,,,0,70,70,70,,,3,0.5768576250011392,6776,001,2025-12-04_13-57-34,
153,AF05ANS.JPG,frygtsom_compressed.wav,negative,babble_11.wav,fiasko_reversed.wav,albue_reversed.wav,,,,,0,71,71,71,,,2,1.148411957998178,6776,001,2025-12-04_13-57-34,
75,AM09NES.JPG,konge_compressed.wav,positive,babble_13.wav,spænding_reversed.wav,ketchup_reversed.wav,,,,,0,72,72,72,,,4,0.18524475000231178,6776,001,2025-12-04_13-57-34,
174,AF26NES.JPG,engel_compressed.wav,positive,babble_43.wav,heldig_reversed.wav,kande_reversed.wav,,,,,0,73,73,73,,,5,1.1333491250006773,6776,001,2025-12-04_13-57-34,
141,AF02NES.JPG,væmmes_compressed.wav,negative,babble_53.wav,sandhed_reversed.wav,lærer_reversed.wav,,,,,0,74,74,74,,,4,1.175533624998934,6776,001,2025-12-04_13-57-34,
140,AF23HAS.JPG,baby_compressed.wav,positive,babble_37.wav,papir_reversed.wav,brænde_reversed.wav,,,,,0,75,75,75,,,7,1.3542565829993691,6776,001,2025-12-04_13-57-34,
31,AM19NES.JPG,fjollet_compressed.wav,positive,babble_86.wav,gaffel_reversed.wav,taxa_reversed.wav,,,,,0,76,76,76,,,4,1.153828832997533,6776,001,2025-12-04_13-57-34,
5,AM03NES.JPG,sollys_compressed.wav,positive,babble_88.wav,ørken_reversed.wav,morder_reversed.wav,,,,,0,77,77,77,,,4,0.625491457998578,6776,001,2025-12-04_13-57-34,
159,AF21ANS.JPG,natur_compressed.wav,positive,babble_88.wav,bifald_reversed.wav,spise_reversed.wav,,,,,0,78,78,78,,,3,0.6092218339981628,6776,001,2025-12-04_13-57-34,
152,AM31ANS.JPG,SILENCE,no-prime,babble_35.wav,lampe_reversed.wav,cirkel_reversed.wav,,,,,0,79,79,79,,,1,0.4482454580029298,6776,001,2025-12-04_13-57-34,
59,AF30NES.JPG,gratis_compressed.wav,positive,babble_78.wav,ankel_reversed.wav,forfald_reversed.wav,,,,,0,80,80,80,,,4,0.4740265410000575,6776,001,2025-12-04_13-57-34,
87,AF09ANS.JPG,SILENCE,no-prime,babble_9.wav,kæle_reversed.wav,vindue_reversed.wav,,,,,0,81,81,81,,,3,0.7499563750025118,6776,001,2025-12-04_13-57-34,
14,AF23ANS.JPG,vandal_compressed.wav,negative,babble_35.wav,krise_reversed.wav,blodig_reversed.wav,,,,,0,82,82,82,,,2,0.7883605419992818,6776,001,2025-12-04_13-57-34,
193,AM29ANS.JPG,morder_compressed.wav,negative,babble_2.wav,heldig_reversed.wav,blodig_reversed.wav,,,,,0,83,83,83,,,2,0.7030487920019368,6776,001,2025-12-04_13-57-34,
178,AF06ANS.JPG,jubel_compressed.wav,positive,babble_14.wav,konge_reversed.wav,konkurs_reversed.wav,,,,,0,84,84,84,,,2,1.235067749999871,6776,001,2025-12-04_13-57-34,
16,AM13NES.JPG,gratis_compressed.wav,positive,babble_19.wav,redskab_reversed.wav,jubel_reversed.wav,,,,,0,85,85,85,,,4,0.4099487079984101,6776,001,2025-12-04_13-57-34,
105,AF29NES.JPG,sæde_compressed.wav,neutral,babble_76.wav,fiasko_reversed.wav,fjollet_reversed.wav,,,,,0,86,86,86,,,5,0.5648484170014854,6776,001,2025-12-04_13-57-34,
198,AM13HAS.JPG,SILENCE,no-prime,babble_23.wav,accept_reversed.wav,modgang_reversed.wav,,,,,0,87,87,87,,,8,0.6410737920014071,6776,001,2025-12-04_13-57-34,
53,AF17NES.JPG,skyldig_compressed.wav,negative,babble_7.wav,koldbrand_reversed.wav,brutal_reversed.wav,,,,,0,88,88,88,,,6,0.7144967090025602,6776,001,2025-12-04_13-57-34,
97,AM04ANS.JPG,lækker_compressed.wav,positive,babble_4.wav,gidsel_reversed.wav,lækker_reversed.wav,,,,,0,89,89,89,,,2,0.6437641250013257,6776,001,2025-12-04_13-57-34,
168,AM15ANS.JPG,pude_compressed.wav,positive,babble_10.wav,ketchup_reversed.wav,taber_reversed.wav,,,,,0,90,90,90,,,2,0.5970991249996587,6776,001,2025-12-04_13-57-34,
21,AF25HAS.JPG,SILENCE,no-prime,babble_26.wav,slagtning_reversed.wav,ørken_reversed.wav,,,,,0,91,91,91,,,8,0.5355769160014461,6776,001,2025-12-04_13-57-34,
101,AM35ANS.JPG,kvæles_compressed.wav,negative,babble_27.wav,kiste_reversed.wav,dæmon_reversed.wav,,,,,0,92,92,92,,,2,0.8498292500007665,6776,001,2025-12-04_13-57-34,
158,AF11ANS.JPG,gade_compressed.wav,neutral,babble_74.wav,salat_reversed.wav,sæde_reversed.wav,,,,,0,93,93,93,,,2,0.5825813749979716,6776,001,2025-12-04_13-57-34,
161,AM31NES.JPG,cirkus_compressed.wav,positive,babble_80.wav,kugle_reversed.wav,vandfald_reversed.wav,,,,,0,94,94,94,,,5,0.7904175830008171,6776,001,2025-12-04_13-57-34,
112,AF20ANS.JPG,SILENCE,no-prime,babble_47.wav,misbrug_reversed.wav,grusom_reversed.wav,,,,,0,95,95,95,,,3,0.7328701669975999,6776,001,2025-12-04_13-57-34,
157,AF35NES.JPG,modgang_compressed.wav,negative,babble_17.wav,finger_reversed.wav,marked_reversed.wav,,,,,0,96,96,96,,,4,0.9743391250012792,6776,001,2025-12-04_13-57-34,
142,AF03ANS.JPG,engel_compressed.wav,positive,babble_44.wav,lampe_reversed.wav,respekt_reversed.wav,,,,,0,97,97,97,,,2,0.508165209001163,6776,001,2025-12-04_13-57-34,
149,AM30HAS.JPG,sexet_compressed.wav,positive,babble_40.wav,brutal_reversed.wav,kage_reversed.wav,,,,,0,98,98,98,,,8,0.5931116250030755,6776,001,2025-12-04_13-57-34,
60,AM03ANS.JPG,pude_compressed.wav,positive,babble_28.wav,magisk_reversed.wav,taxa_reversed.wav,,,,,0,99,99,99,,,1,0.5111392090002482,6776,001,2025-12-04_13-57-34,
95,AM09ANS.JPG,musik_compressed.wav,positive,babble_81.wav,tilfreds_reversed.wav,konkurs_reversed.wav,,,,,0,100,100,100,,,1,0.37532583299980615,6776,001,2025-12-04_13-57-34,
82,AM02NES.JPG,SILENCE,no-prime,babble_65.wav,venlig_reversed.wav,violin_reversed.wav,,,,,0,101,101,101,,,2,0.44354808400021284,6776,001,2025-12-04_13-57-34,
169,AF28ANS.JPG,kedel_compressed.wav,neutral,babble_3.wav,patent_reversed.wav,varme_reversed.wav,,,,,0,102,102,102,,,3,0.739052917000663,6776,001,2025-12-04_13-57-34,
146,AF08HAS.JPG,accept_compressed.wav,positive,babble_12.wav,kontor_reversed.wav,natur_reversed.wav,,,,,0,103,103,103,,,9,0.4760872910010221,6776,001,2025-12-04_13-57-34,
80,AM22NES.JPG,kvæles_compressed.wav,negative,babble_53.wav,konge_reversed.wav,tilfreds_reversed.wav,,,,,0,104,104,104,,,2,1.5706107500009239,6776,001,2025-12-04_13-57-34,
164,AM21ANS.JPG,måned_compressed.wav,neutral,babble_22.wav,skyldig_reversed.wav,utro_reversed.wav,,,,,0,105,105,105,,,2,0.4077395419990353,6776,001,2025-12-04_13-57-34,
123,AM35NES.JPG,måned_compressed.wav,neutral,babble_31.wav,rigdom_reversed.wav,hader_reversed.wav,,,,,0,106,106,106,,,4,0.833037083997624,6776,001,2025-12-04_13-57-34,
43,AM29NES.JPG,taber_compressed.wav,negative,babble_3.wav,statue_reversed.wav,papir_reversed.wav,,,,,0,107,107,107,,,4,0.12212345799707691,6776,001,2025-12-04_13-57-34,
179,AM25HAS.JPG,boble_compressed.wav,neutral,babble_89.wav,rigdom_reversed.wav,kage_reversed.wav,,,,,0,108,108,108,,,8,0.7266469159985718,6776,001,2025-12-04_13-57-34,
52,AF17ANS.JPG,diamant_compressed.wav,positive,babble_12.wav,dollar_reversed.wav,djævel_reversed.wav,,,,,0,109,109,109,,,2,0.6557039159997657,6776,001,2025-12-04_13-57-34,
1,AF05NES.JPG,vandfald_compressed.wav,positive,babble_5.wav,bygning_reversed.wav,ugle_reversed.wav,,,,,0,110,110,110,,,4,1.5361804999993183,6776,001,2025-12-04_13-57-34,
114,AF05HAS.JPG,bombe_compressed.wav,negative,babble_46.wav,offer_reversed.wav,konge_reversed.wav,,,,,0,111,111,111,,,8,0.7296164590006811,6776,001,2025-12-04_13-57-34,
83,AF10NES.JPG,kæle_compressed.wav,positive,babble_44.wav,succes_reversed.wav,gave_reversed.wav,,,,,0,112,112,112,,,3,0.4031996670018998,6776,001,2025-12-04_13-57-34,
41,AM30NES.JPG,kedel_compressed.wav,neutral,babble_69.wav,respekt_reversed.wav,skyldig_reversed.wav,,,,,0,113,113,113,,,4,0.206119791000674,6776,001,2025-12-04_13-57-34,
160,AF13ANS.JPG,fiasko_compressed.wav,negative,babble_29.wav,gave_reversed.wav,motor_reversed.wav,,,,,0,114,114,114,,,1,0.633707291999599,6776,001,2025-12-04_13-57-34,
6,AM28NES.JPG,beundret_compressed.wav,positive,babble_95.wav,plakat_reversed.wav,forkert_reversed.wav,,,,,0,115,115,115,,,4,0.46144662499864353,6776,001,2025-12-04_13-57-34,
177,AF16ANS.JPG,festlig_compressed.wav,positive,babble_57.wav,frihed_reversed.wav,himlen_reversed.wav,,,,,0,116,116,116,,,2,3.4646457909984747,6776,001,2025-12-04_13-57-34,
150,AF19HAS.JPG,penge_compressed.wav,positive,babble_41.wav,hader_reversed.wav,kærtegn_reversed.wav,,,,,0,117,117,117,,,9,0.5388521670029149,6776,001,2025-12-04_13-57-34,
84,AF11NES.JPG,brænde_compressed.wav,negative,babble_84.wav,heldig_reversed.wav,kedel_reversed.wav,,,,,0,118,118,118,,,3,1.4783064580005885,6776,001,2025-12-04_13-57-34,
63,AM27HAS.JPG,fedme_compressed.wav,negative,babble_56.wav,vandfald_reversed.wav,magisk_reversed.wav,,,,,0,119,119,119,,,6,0.28940916700230446,6776,001,2025-12-04_13-57-34,
108,AF29HAS.JPG,afvist_compressed.wav,negative,babble_39.wav,blomstre_reversed.wav,kugle_reversed.wav,,,,,0,120,120,120,,,9,0.5331523330023629,6776,001,2025-12-04_13-57-34,
186,AM24NES.JPG,vandal_compressed.wav,negative,babble_1.wav,smerte_reversed.wav,hjerte_reversed.wav,,,,,0,121,121,121,,,4,2.415418917000352,6776,001,2025-12-04_13-57-34,
197,AM26HAS.JPG,SILENCE,no-prime,babble_27.wav,ledning_reversed.wav,trussel_reversed.wav,,,,,0,122,122,122,,,6,1.9541252919989347,6776,001,2025-12-04_13-57-34,
166,AF10ANS.JPG,kugle_compressed.wav,neutral,babble_60.wav,illoyal_reversed.wav,skuffe_reversed.wav,,,,,0,123,123,123,,,2,0.868610917001206,6776,001,2025-12-04_13-57-34,
133,AM17ANS.JPG,lyse_compressed.wav,positive,babble_21.wav,illoyal_reversed.wav,lærer_reversed.wav,,,,,0,124,124,124,,,1,0.45175591700171935,6776,001,2025-12-04_13-57-34,
45,AM31HAS.JPG,trofæ_compressed.wav,positive,babble_25.wav,diamant_reversed.wav,vandal_reversed.wav,,,,,0,125,125,125,,,8,0.2239066250003816,6776,001,2025-12-04_13-57-34,
78,AM32NES.JPG,smerte_compressed.wav,negative,babble_67.wav,mester_reversed.wav,traume_reversed.wav,,,,,0,126,126,126,,,3,0.4652534159977222,6776,001,2025-12-04_13-57-34,
49,AF06HAS.JPG,gidsel_compressed.wav,negative,babble_77.wav,rådden_reversed.wav,tortur_reversed.wav,,,,,0,127,127,127,,,9,0.3743669579998823,6776,001,2025-12-04_13-57-34,
189,AM07ANS.JPG,rotte_compressed.wav,negative,babble_0.wav,pude_reversed.wav,kedel_reversed.wav,,,,,0,128,128,128,,,1,0.48117495800033794,6776,001,2025-12-04_13-57-34,
73,AM10NES.JPG,SILENCE,no-prime,babble_14.wav,skammel_reversed.wav,enhed_reversed.wav,,,,,0,129,129,129,,,4,1.2281732499977807,6776,001,2025-12-04_13-57-34,
129,AF12ANS.JPG,marked_compressed.wav,neutral,babble_34.wav,museum_reversed.wav,kontor_reversed.wav,,,,,0,130,130,130,,,5,1.1195364999985031,6776,001,2025-12-04_13-57-34,
74,AF33HAS.JPG,SILENCE,no-prime,babble_39.wav,spænding_reversed.wav,kedel_reversed.wav,,,,,0,131,131,131,,,9,0.4233679579992895,6776,001,2025-12-04_13-57-34,
2,AF13NES.JPG,bange_compressed.wav,negative,babble_7.wav,tortur_reversed.wav,frygtsom_reversed.wav,,,,,0,132,132,132,,,4,0.5544496250004158,6776,001,2025-12-04_13-57-34,
117,AM23HAS.JPG,fedme_compressed.wav,negative,babble_34.wav,tilfreds_reversed.wav,spise_reversed.wav,,,,,0,133,133,133,,,8,0.4257700410016696,6776,001,2025-12-04_13-57-34,
61,AM06ANS.JPG,fiasko_compressed.wav,negative,babble_68.wav,lyse_reversed.wav,dæmpet_reversed.wav,,,,,0,134,134,134,,,1,0.098190208998858,6776,001,2025-12-04_13-57-34,
85,AF19NES.JPG,SILENCE,no-prime,babble_46.wav,avis_reversed.wav,talent_reversed.wav,,,,,0,135,135,135,,,4,0.7855672909972782,6776,001,2025-12-04_13-57-34,
26,AM34NES.JPG,SILENCE,no-prime,babble_25.wav,cirkel_reversed.wav,skade_reversed.wav,,,,,0,136,136,136,,,3,0.24870654199912678,6776,001,2025-12-04_13-57-34,
188,AF04ANS.JPG,nonne_compressed.wav,neutral,babble_79.wav,gratis_reversed.wav,bifald_reversed.wav,,,,,0,137,137,137,,,2,0.524255374999484,6776,001,2025-12-04_13-57-34,
94,AF21NES.JPG,afskyr_compressed.wav,negative,babble_39.wav,krise_reversed.wav,skammel_reversed.wav,,,,,0,138,138,138,,,3,0.9316852499978268,6776,001,2025-12-04_13-57-34,
116,AF19ANS.JPG,kedel_compressed.wav,neutral,babble_15.wav,albue_reversed.wav,fjendtlig_reversed.wav,,,,,0,139,139,139,,,1,0.3844763340021018,6776,001,2025-12-04_13-57-34,
20,AF16HAS.JPG,ære_compressed.wav,positive,babble_65.wav,rigdom_reversed.wav,marked_reversed.wav,,,,,0,140,140,140,,,9,0.6300068749987986,6776,001,2025-12-04_13-57-34,
172,AF04NES.JPG,luksus_compressed.wav,positive,babble_46.wav,fængsel_reversed.wav,forpint_reversed.wav,,,,,0,141,141,141,,,4,1.3407250000018394,6776,001,2025-12-04_13-57-34,
65,AM29HAS.JPG,drukne_compressed.wav,negative,babble_2.wav,hjerte_reversed.wav,ørken_reversed.wav,,,,,0,142,142,142,,,8,1.5166330829997605,6776,001,2025-12-04_13-57-34,
134,AF01ANS.JPG,ankel_compressed.wav,neutral,babble_49.wav,bange_reversed.wav,røver_reversed.wav,,,,,0,143,143,143,,,2,1.9360059169994202,6776,001,2025-12-04_13-57-34,
171,AF28HAS.JPG,glæde_compressed.wav,positive,babble_66.wav,skyldig_reversed.wav,misbrug_reversed.wav,,,,,0,144,144,144,,,8,2.183060084000317,6776,001,2025-12-04_13-57-34,
46,AM27ANS.JPG,voldsom_compressed.wav,negative,babble_67.wav,spise_reversed.wav,kande_reversed.wav,,,,,0,145,145,145,,,1,1.5132482080007321,6776,001,2025-12-04_13-57-34,
183,AF15ANS.JPG,nonsens_compressed.wav,neutral,babble_6.wav,sæde_reversed.wav,væmmes_reversed.wav,,,,,0,146,146,146,,,1,0.3523478340030124,6776,001,2025-12-04_13-57-34,
47,AM15NES.JPG,respekt_compressed.wav,positive,babble_65.wav,lyse_reversed.wav,nonne_reversed.wav,,,,,0,147,147,147,,,3,0.6610587089999171,6776,001,2025-12-04_13-57-34,
30,AM24ANS.JPG,marked_compressed.wav,neutral,babble_49.wav,sygdom_reversed.wav,tumor_reversed.wav,,,,,0,148,148,148,,,3,0.4998326669992821,6776,001,2025-12-04_13-57-34,
185,AM16HAS.JPG,SILENCE,no-prime,babble_65.wav,finger_reversed.wav,skønhed_reversed.wav,,,,,0,149,149,149,,,9,0.5499322920004488,6776,001,2025-12-04_13-57-34,
91,AF27HAS.JPG,kæle_compressed.wav,positive,babble_30.wav,beskidt_reversed.wav,albue_reversed.wav,,,,,0,150,150,150,,,9,0.5991710839989537,6776,001,2025-12-04_13-57-34,
151,AM33NES.JPG,ferie_compressed.wav,positive,babble_5.wav,accept_reversed.wav,hage_reversed.wav,,,,,0,151,151,151,,,3,1.227750374997413,6776,001,2025-12-04_13-57-34,
44,AM32HAS.JPG,vandal_compressed.wav,negative,babble_54.wav,skammel_reversed.wav,blomstre_reversed.wav,,,,,0,152,152,152,,,7,0.527318208001816,6776,001,2025-12-04_13-57-34,
64,AF32HAS.JPG,venlig_compressed.wav,positive,babble_8.wav,morder_reversed.wav,nedbrud_reversed.wav,,,,,0,153,153,153,,,9,0.3777553750005609,6776,001,2025-12-04_13-57-34,
147,AM01NES.JPG,luder_compressed.wav,negative,babble_68.wav,taber_reversed.wav,oprør_reversed.wav,,,,,0,154,154,154,,,3,0.3861103749986796,6776,001,2025-12-04_13-57-34,
187,AF29ANS.JPG,cirkus_compressed.wav,positive,babble_28.wav,avis_reversed.wav,enhed_reversed.wav,,,,,0,155,155,155,,,2,0.9916650839986687,6776,001,2025-12-04_13-57-34,
70,AF20HAS.JPG,traume_compressed.wav,negative,babble_93.wav,engel_reversed.wav,hader_reversed.wav,,,,,0,156,156,156,,,9,0.5618982919986593,6776,001,2025-12-04_13-57-34,
54,AF09NES.JPG,natur_compressed.wav,positive,babble_62.wav,illoyal_reversed.wav,gade_reversed.wav,,,,,0,157,157,157,,,4,0.524634542001877,6776,001,2025-12-04_13-57-34,
57,AM32ANS.JPG,søsyg_compressed.wav,negative,babble_31.wav,metal_reversed.wav,lyse_reversed.wav,,,,,0,158,158,158,,,3,2.337808625001344,6776,001,2025-12-04_13-57-34,
24,AM18ANS.JPG,ensom_compressed.wav,negative,babble_85.wav,skyldig_reversed.wav,grimme_reversed.wav,,,,,0,159,159,159,,,2,1.0253322909993585,6776,001,2025-12-04_13-57-34,
126,AM23NES.JPG,pjece_compressed.wav,neutral,babble_63.wav,ketchup_reversed.wav,utro_reversed.wav,,,,,0,160,160,160,,,4,1.360153541998443,6776,001,2025-12-04_13-57-34,
40,AF03HAS.JPG,bryllup_compressed.wav,positive,babble_46.wav,væmmes_reversed.wav,voldtægt_reversed.wav,,,,,0,161,161,161,,,7,0.2923515420006879,6776,001,2025-12-04_13-57-34,
37,AF02HAS.JPG,SILENCE,no-prime,babble_93.wav,utro_reversed.wav,opstemt_reversed.wav,,,,,0,162,162,162,,,8,0.5543029170003138,6776,001,2025-12-04_13-57-34,
62,AF10HAS.JPG,gade_compressed.wav,neutral,babble_36.wav,hage_reversed.wav,statue_reversed.wav,,,,,0,163,163,163,,,8,0.4620364589973178,6776,001,2025-12-04_13-57-34,
71,AM10HAS.JPG,musik_compressed.wav,positive,babble_78.wav,djævel_reversed.wav,lærer_reversed.wav,,,,,0,164,164,164,,,8,2.480482708000636,6776,001,2025-12-04_13-57-34,
32,AF24NES.JPG,SILENCE,no-prime,babble_22.wav,væmmes_reversed.wav,latter_reversed.wav,,,,,0,165,165,165,,,4,1.3386187910000444,6776,001,2025-12-04_13-57-34,
23,AM22ANS.JPG,selvmord_compressed.wav,negative,babble_77.wav,vandal_reversed.wav,poesi_reversed.wav,,,,,0,166,166,166,,,1,1.1569430829986231,6776,001,2025-12-04_13-57-34,
72,AF25ANS.JPG,fjendtlig_compressed.wav,negative,babble_33.wav,kærtegn_reversed.wav,kontor_reversed.wav,,,,,0,167,167,167,,,1,0.8063733330018295,6776,001,2025-12-04_13-57-34,
115,AF24HAS.JPG,bryllup_compressed.wav,positive,babble_77.wav,marked_reversed.wav,brænde_reversed.wav,,,,,0,168,168,168,,,9,0.5051739999980782,6776,001,2025-12-04_13-57-34,
77,AF21HAS.JPG,himmel_compressed.wav,positive,babble_57.wav,borddug_reversed.wav,bifald_reversed.wav,,,,,0,169,169,169,,,8,0.6124399170003016,6776,001,2025-12-04_13-57-34,
122,AF34HAS.JPG,sandhed_compressed.wav,positive,babble_58.wav,gave_reversed.wav,kedel_reversed.wav,,,,,0,170,170,170,,,8,0.33329029100059415,6776,001,2025-12-04_13-57-34,
145,AM06HAS.JPG,fase_compressed.wav,neutral,babble_6.wav,grusom_reversed.wav,pjece_reversed.wav,,,,,0,171,171,171,,,7,0.5740420410002116,6776,001,2025-12-04_13-57-34,
66,AF26HAS.JPG,pjece_compressed.wav,neutral,babble_46.wav,museum_reversed.wav,vinde_reversed.wav,,,,,0,172,172,172,,,8,0.9454080830000748,6776,001,2025-12-04_13-57-34,
103,AM21HAS.JPG,gaffel_compressed.wav,neutral,babble_98.wav,ensom_reversed.wav,drukne_reversed.wav,,,,,0,173,173,173,,,8,0.7246938329990371,6776,001,2025-12-04_13-57-34,
10,AM26NES.JPG,slagtning_compressed.wav,negative,babble_41.wav,blomstre_reversed.wav,gade_reversed.wav,,,,,0,174,174,174,,,4,0.4726082499983022,6776,001,2025-12-04_13-57-34,
90,AM11ANS.JPG,forkert_compressed.wav,negative,babble_52.wav,vindue_reversed.wav,glæde_reversed.wav,,,,,0,175,175,175,,,1,0.8655084579986578,6776,001,2025-12-04_13-57-34,
200,AM19HAS.JPG,SILENCE,no-prime,babble_19.wav,leder_reversed.wav,sikker_reversed.wav,,,,,0,176,176,176,,,9,0.6072710000007646,6776,001,2025-12-04_13-57-34,
139,AM25NES.JPG,penge_compressed.wav,positive,babble_52.wav,papir_reversed.wav,mester_reversed.wav,,,,,0,177,177,177,,,4,0.45319150000068475,6776,001,2025-12-04_13-57-34,
192,AF33ANS.JPG,redskab_compressed.wav,neutral,babble_1.wav,varme_reversed.wav,syndig_reversed.wav,,,,,0,178,178,178,,,3,0.8103710830000637,6776,001,2025-12-04_13-57-34,
69,AM08HAS.JPG,succes_compressed.wav,positive,babble_40.wav,skyldig_reversed.wav,rædsel_reversed.wav,,,,,0,179,179,179,,,6,0.4652351250006177,6776,001,2025-12-04_13-57-34,
154,AF16NES.JPG,engel_compressed.wav,positive,babble_39.wav,venlig_reversed.wav,fase_reversed.wav,,,,,0,180,180,180,,,4,0.5831005000000005,6776,001,2025-12-04_13-57-34,
93,AF35ANS.JPG,kysse_compressed.wav,positive,babble_57.wav,talent_reversed.wav,metal_reversed.wav,,,,,0,181,181,181,,,2,0.2369678750001185,6776,001,2025-12-04_13-57-34,
180,AM28ANS.JPG,SILENCE,no-prime,babble_89.wav,pervers_reversed.wav,jubel_reversed.wav,,,,,0,182,182,182,,,1,0.4617459580003924,6776,001,2025-12-04_13-57-34,
34,AF09HAS.JPG,beundret_compressed.wav,positive,babble_25.wav,spise_reversed.wav,regnbue_reversed.wav,,,,,0,183,183,183,,,8,0.39161858299848973,6776,001,2025-12-04_13-57-34,
22,AF07NES.JPG,gaffel_compressed.wav,neutral,babble_94.wav,smerte_reversed.wav,patent_reversed.wav,,,,,0,184,184,184,,,4,0.6156730000002426,6776,001,2025-12-04_13-57-34,
68,AF06NES.JPG,talent_compressed.wav,positive,babble_22.wav,oprør_reversed.wav,sygdom_reversed.wav,,,,,0,185,185,185,,,4,0.4902761669982283,6776,001,2025-12-04_13-57-34,
120,AF23NES.JPG,stjerne_compressed.wav,positive,babble_91.wav,offer_reversed.wav,kedel_reversed.wav,,,,,0,186,186,186,,,4,0.8508318749991304,6776,001,2025-12-04_13-57-34,
67,AM08ANS.JPG,fjendtlig_compressed.wav,negative,babble_93.wav,tortur_reversed.wav,affald_reversed.wav,,,,,0,187,187,187,,,1,0.49445529200238525,6776,001,2025-12-04_13-57-34,
148,AF27NES.JPG,putte_compressed.wav,positive,babble_26.wav,nøgle_reversed.wav,pude_reversed.wav,,,,,0,188,188,188,,,4,0.5333967090009537,6776,001,2025-12-04_13-57-34,
50,AM18HAS.JPG,SILENCE,no-prime,babble_76.wav,lærer_reversed.wav,avis_reversed.wav,,,,,0,189,189,189,,,8,0.4943482079979731,6776,001,2025-12-04_13-57-34,
51,AM19ANS.JPG,konge_compressed.wav,positive,babble_85.wav,talent_reversed.wav,kiste_reversed.wav,,,,,0,190,190,190,,,1,0.6195444580007461,6776,001,2025-12-04_13-57-34,
33,AF01HAS.JPG,drukne_compressed.wav,negative,babble_95.wav,accept_reversed.wav,rigdom_reversed.wav,,,,,0,191,191,191,,,9,0.615143041999545,6776,001,2025-12-04_13-57-34,
136,AM26ANS.JPG,rotte_compressed.wav,negative,babble_5.wav,kæle_reversed.wav,frygtsom_reversed.wav,,,,,0,192,192,192,,,2,0.5113186669987044,6776,001,2025-12-04_13-57-34,
170,AM01ANS.JPG,grusom_compressed.wav,negative,babble_88.wav,passion_reversed.wav,sikker_reversed.wav,,,,,0,193,193,193,,,1,0.6263593749972642,6776,001,2025-12-04_13-57-34,
