trial_i,face_file,prime_file,prime_valence,babbling_file,mask1_file,mask2_file,practice.thisRepN,practice.thisTrialN,practice.thisN,practice.thisIndex,main.thisRepN,main.thisTrialN,main.thisN,main.thisIndex,thisRow.t,notes,response_key,rt,Participant ID,Session,date,
174,AM08NES.JPG,SILENCE,no-prime,babble_48.wav,skønhed_reversed.wav,mave_reversed.wav,0,0,0,0,0,-1,-1,0,,,3,0.01870349998353049,9123,001,2025-12-06_17-05-17,
33,AM31NES.JPG,viden_compressed.wav,positive,babble_25.wav,violin_reversed.wav,beskidt_reversed.wav,0,1,1,1,0,-1,-1,0,,,5,1.440025100018829,9123,001,2025-12-06_17-05-17,
114,AM27NES.JPG,tortur_compressed.wav,negative,babble_84.wav,nøgle_reversed.wav,heldig_reversed.wav,0,2,2,2,0,-1,-1,0,,,2,1.5690744000021368,9123,001,2025-12-06_17-05-17,
116,AM34HAS.JPG,SILENCE,no-prime,babble_74.wav,himmel_reversed.wav,bifald_reversed.wav,0,3,3,3,0,-1,-1,0,,,9,0.14545690000522882,9123,001,2025-12-06_17-05-17,
65,AM24HAS.JPG,grimme_compressed.wav,negative,babble_24.wav,frihed_reversed.wav,sandhed_reversed.wav,0,4,4,4,0,-1,-1,0,,,8,1.4132085000164807,9123,001,2025-12-06_17-05-17,
74,AM17HAS.JPG,tortur_compressed.wav,negative,babble_77.wav,genert_reversed.wav,taber_reversed.wav,0,5,5,5,0,-1,-1,0,,,9,2.1642370999907143,9123,001,2025-12-06_17-05-17,
176,AF05ANS.JPG,hjerte_compressed.wav,positive,babble_49.wav,humor_reversed.wav,lyse_reversed.wav,,,,,0,0,0,0,,,1,0.2782432999811135,9123,001,2025-12-06_17-05-17,
132,AM28NES.JPG,succes_compressed.wav,positive,babble_4.wav,flirte_reversed.wav,kugle_reversed.wav,,,,,0,1,1,1,,,3,0.45212759997230023,9123,001,2025-12-06_17-05-17,
2,AM05ANS.JPG,SILENCE,no-prime,babble_49.wav,konkurs_reversed.wav,frygtsom_reversed.wav,,,,,0,2,2,2,,,1,1.168746299983468,9123,001,2025-12-06_17-05-17,
140,AM14NES.JPG,krise_compressed.wav,negative,babble_89.wav,kiste_reversed.wav,hjerte_reversed.wav,,,,,0,3,3,3,,,5,0.7994588000001386,9123,001,2025-12-06_17-05-17,
100,AF10NES.JPG,skyldig_compressed.wav,negative,babble_84.wav,sollys_reversed.wav,djævel_reversed.wav,,,,,0,4,4,4,,,4,1.16149069997482,9123,001,2025-12-06_17-05-17,
151,AF30ANS.JPG,vandal_compressed.wav,negative,babble_30.wav,søsyg_reversed.wav,viden_reversed.wav,,,,,0,5,5,5,,,3,1.8698450000374578,9123,001,2025-12-06_17-05-17,
181,AM12ANS.JPG,voldtægt_compressed.wav,negative,babble_26.wav,søsyg_reversed.wav,grusom_reversed.wav,,,,,0,6,6,6,,,3,1.515556700003799,9123,001,2025-12-06_17-05-17,
198,AF06HAS.JPG,fjollet_compressed.wav,positive,babble_75.wav,sexet_reversed.wav,lyse_reversed.wav,,,,,0,7,7,7,,,7,1.1347714000148699,9123,001,2025-12-06_17-05-17,
120,AM15NES.JPG,frygtsom_compressed.wav,negative,babble_81.wav,lyse_reversed.wav,gaffel_reversed.wav,,,,,0,8,8,8,,,4,0.5764005000237375,9123,001,2025-12-06_17-05-17,
41,AF13ANS.JPG,maling_compressed.wav,neutral,babble_53.wav,nonsens_reversed.wav,blodig_reversed.wav,,,,,0,9,9,9,,,2,0.5302539999829605,9123,001,2025-12-06_17-05-17,
188,AM01ANS.JPG,musik_compressed.wav,positive,babble_74.wav,grusom_reversed.wav,maling_reversed.wav,,,,,0,10,10,10,,,1,0.9620160000049509,9123,001,2025-12-06_17-05-17,
175,AM16ANS.JPG,ensom_compressed.wav,negative,babble_85.wav,kiste_reversed.wav,avis_reversed.wav,,,,,0,11,11,11,,,1,0.9226871999562718,9123,001,2025-12-06_17-05-17,
113,AM23NES.JPG,kontor_compressed.wav,neutral,babble_59.wav,regnbue_reversed.wav,taber_reversed.wav,,,,,0,12,12,12,,,5,1.494654799986165,9123,001,2025-12-06_17-05-17,
85,AF24ANS.JPG,salat_compressed.wav,neutral,babble_16.wav,giftig_reversed.wav,sygdom_reversed.wav,,,,,0,13,13,13,,,3,1.2670879000215791,9123,001,2025-12-06_17-05-17,
43,AF04HAS.JPG,pervers_compressed.wav,negative,babble_24.wav,putte_reversed.wav,redskab_reversed.wav,,,,,0,14,14,14,,,7,1.1229810999939218,9123,001,2025-12-06_17-05-17,
142,AM29ANS.JPG,sindssyg_compressed.wav,negative,babble_37.wav,succes_reversed.wav,rådden_reversed.wav,,,,,0,15,15,15,,,2,0.43967829999746755,9123,001,2025-12-06_17-05-17,
107,AF16HAS.JPG,viden_compressed.wav,positive,babble_33.wav,marked_reversed.wav,cirkel_reversed.wav,,,,,0,16,16,16,,,8,0.3916538000339642,9123,001,2025-12-06_17-05-17,
139,AM02ANS.JPG,baby_compressed.wav,positive,babble_70.wav,borddug_reversed.wav,festlig_reversed.wav,,,,,0,17,17,17,,,2,0.41629100003046915,9123,001,2025-12-06_17-05-17,
57,AF15HAS.JPG,trussel_compressed.wav,negative,babble_90.wav,skyldig_reversed.wav,mave_reversed.wav,,,,,0,18,18,18,,,8,2.4561397000215948,9123,001,2025-12-06_17-05-17,
164,AM03NES.JPG,mave_compressed.wav,neutral,babble_36.wav,oprørt_reversed.wav,museum_reversed.wav,,,,,0,19,19,19,,,4,1.6500691000255756,9123,001,2025-12-06_17-05-17,
25,AM06HAS.JPG,gidsel_compressed.wav,negative,babble_36.wav,måned_reversed.wav,gidsel_reversed.wav,,,,,0,20,20,20,,,9,1.4857867000391707,9123,001,2025-12-06_17-05-17,
162,AM09NES.JPG,respekt_compressed.wav,positive,babble_53.wav,trofæ_reversed.wav,slave_reversed.wav,,,,,0,21,21,21,,,5,1.205579100002069,9123,001,2025-12-06_17-05-17,
149,AF34HAS.JPG,offer_compressed.wav,negative,babble_35.wav,glæde_reversed.wav,gratis_reversed.wav,,,,,0,22,22,22,,,8,1.1881888000061736,9123,001,2025-12-06_17-05-17,
186,AM30ANS.JPG,dollar_compressed.wav,positive,babble_83.wav,nonsens_reversed.wav,giftig_reversed.wav,,,,,0,23,23,23,,,3,1.3409622999606654,9123,001,2025-12-06_17-05-17,
137,AF21HAS.JPG,forpint_compressed.wav,negative,babble_98.wav,kujon_reversed.wav,tortur_reversed.wav,,,,,0,24,24,24,,,9,0.6903568999841809,9123,001,2025-12-06_17-05-17,
88,AM22HAS.JPG,SILENCE,no-prime,babble_68.wav,dæmpet_reversed.wav,latter_reversed.wav,,,,,0,25,25,25,,,8,2.231904999993276,9123,001,2025-12-06_17-05-17,
40,AM01HAS.JPG,luksus_compressed.wav,positive,babble_59.wav,papir_reversed.wav,sandhed_reversed.wav,,,,,0,26,26,26,,,6,1.0345062999986112,9123,001,2025-12-06_17-05-17,
12,AF12ANS.JPG,SILENCE,no-prime,babble_1.wav,kontor_reversed.wav,glæde_reversed.wav,,,,,0,27,27,27,,,2,1.1374018000205979,9123,001,2025-12-06_17-05-17,
4,AF09ANS.JPG,affald_compressed.wav,negative,babble_82.wav,cirkel_reversed.wav,vinde_reversed.wav,,,,,0,28,28,28,,,1,0.9672103000339121,9123,001,2025-12-06_17-05-17,
143,AM24ANS.JPG,genstand_compressed.wav,neutral,babble_91.wav,drukne_reversed.wav,fiasko_reversed.wav,,,,,0,29,29,29,,,1,1.0023198999697343,9123,001,2025-12-06_17-05-17,
189,AF11NES.JPG,smerte_compressed.wav,negative,babble_19.wav,rådden_reversed.wav,fedme_reversed.wav,,,,,0,30,30,30,,,4,0.7314830999821424,9123,001,2025-12-06_17-05-17,
121,AM07HAS.JPG,himmel_compressed.wav,positive,babble_62.wav,kiste_reversed.wav,konkurs_reversed.wav,,,,,0,31,31,31,,,9,1.7717865000013262,9123,001,2025-12-06_17-05-17,
154,AM31HAS.JPG,hader_compressed.wav,negative,babble_28.wav,gidsel_reversed.wav,grimme_reversed.wav,,,,,0,32,32,32,,,6,1.2929545000079088,9123,001,2025-12-06_17-05-17,
99,AM10ANS.JPG,lærer_compressed.wav,neutral,babble_73.wav,glæde_reversed.wav,feber_reversed.wav,,,,,0,33,33,33,,,1,0.7158854000153951,9123,001,2025-12-06_17-05-17,
91,AF07ANS.JPG,hånlig_compressed.wav,negative,babble_6.wav,ugle_reversed.wav,statue_reversed.wav,,,,,0,34,34,34,,,2,0.8719799999962561,9123,001,2025-12-06_17-05-17,
191,AM22ANS.JPG,fiasko_compressed.wav,negative,babble_4.wav,lyse_reversed.wav,fase_reversed.wav,,,,,0,35,35,35,,,3,0.9238748000352643,9123,001,2025-12-06_17-05-17,
31,AF07NES.JPG,himmel_compressed.wav,positive,babble_3.wav,måned_reversed.wav,ledning_reversed.wav,,,,,0,36,36,36,,,4,1.0508476999821141,9123,001,2025-12-06_17-05-17,
22,AM04NES.JPG,kugle_compressed.wav,neutral,babble_39.wav,sandhed_reversed.wav,gaffel_reversed.wav,,,,,0,37,37,37,,,5,0.7947298999642953,9123,001,2025-12-06_17-05-17,
32,AM05HAS.JPG,SILENCE,no-prime,babble_57.wav,violin_reversed.wav,sindssyg_reversed.wav,,,,,0,38,38,38,,,8,1.0858517000451684,9123,001,2025-12-06_17-05-17,
38,AM01NES.JPG,hånlig_compressed.wav,negative,babble_2.wav,ugle_reversed.wav,taxa_reversed.wav,,,,,0,39,39,39,,,3,1.494423399970401,9123,001,2025-12-06_17-05-17,
146,AM07ANS.JPG,sejre_compressed.wav,positive,babble_92.wav,fjendtlig_reversed.wav,putte_reversed.wav,,,,,0,40,40,40,,,1,0.7754828999750316,9123,001,2025-12-06_17-05-17,
94,AF13NES.JPG,hånlig_compressed.wav,negative,babble_12.wav,redning_reversed.wav,oprørt_reversed.wav,,,,,0,41,41,41,,,5,0.9684070000075735,9123,001,2025-12-06_17-05-17,
77,AM21NES.JPG,rotte_compressed.wav,negative,babble_65.wav,lærer_reversed.wav,respekt_reversed.wav,,,,,0,42,42,42,,,3,0.5780340999481268,9123,001,2025-12-06_17-05-17,
192,AM26NES.JPG,pervers_compressed.wav,negative,babble_68.wav,poesi_reversed.wav,kontor_reversed.wav,,,,,0,43,43,43,,,4,0.9898053999640979,9123,001,2025-12-06_17-05-17,
59,AF29ANS.JPG,SILENCE,no-prime,babble_37.wav,maling_reversed.wav,skyldig_reversed.wav,,,,,0,44,44,44,,,2,0.35524269996676594,9123,001,2025-12-06_17-05-17,
10,AM03HAS.JPG,ferie_compressed.wav,positive,babble_39.wav,grimme_reversed.wav,fase_reversed.wav,,,,,0,45,45,45,,,8,1.149533900024835,9123,001,2025-12-06_17-05-17,
196,AF14HAS.JPG,dollar_compressed.wav,positive,babble_16.wav,rædsel_reversed.wav,dollar_reversed.wav,,,,,0,46,46,46,,,8,1.19090079999296,9123,001,2025-12-06_17-05-17,
178,AF34NES.JPG,pjece_compressed.wav,neutral,babble_54.wav,rådden_reversed.wav,skammel_reversed.wav,,,,,0,47,47,47,,,4,1.041671300015878,9123,001,2025-12-06_17-05-17,
197,AM18ANS.JPG,SILENCE,no-prime,babble_53.wav,bifald_reversed.wav,viden_reversed.wav,,,,,0,48,48,48,,,2,2.17059860000154,9123,001,2025-12-06_17-05-17,
129,AF08ANS.JPG,SILENCE,no-prime,babble_46.wav,brutal_reversed.wav,smerte_reversed.wav,,,,,0,49,49,49,,,3,1.3482398999622092,9123,001,2025-12-06_17-05-17,
15,AM13HAS.JPG,kysse_compressed.wav,positive,babble_26.wav,rabies_reversed.wav,affald_reversed.wav,,,,,0,50,50,50,,,8,0.7632814000244252,9123,001,2025-12-06_17-05-17,
36,AM14ANS.JPG,accept_compressed.wav,positive,babble_45.wav,rabies_reversed.wav,humor_reversed.wav,,,,,0,51,51,51,,,2,1.331845999986399,9123,001,2025-12-06_17-05-17,
92,AF18NES.JPG,morder_compressed.wav,negative,babble_72.wav,mave_reversed.wav,lyse_reversed.wav,,,,,0,52,52,52,,,4,0.7173759000143036,9123,001,2025-12-06_17-05-17,
128,AM32ANS.JPG,voldtægt_compressed.wav,negative,babble_60.wav,tortur_reversed.wav,oprør_reversed.wav,,,,,0,53,53,53,,,3,1.75903949997155,9123,001,2025-12-06_17-05-17,
145,AM19NES.JPG,gratis_compressed.wav,positive,babble_27.wav,museum_reversed.wav,blomstre_reversed.wav,,,,,0,54,54,54,,,4,1.7000246999668889,9123,001,2025-12-06_17-05-17,
19,AM32HAS.JPG,skyldig_compressed.wav,negative,babble_91.wav,traume_reversed.wav,fjendtlig_reversed.wav,,,,,0,55,55,55,,,7,0.6523732999921776,9123,001,2025-12-06_17-05-17,
29,AF34ANS.JPG,musik_compressed.wav,positive,babble_72.wav,fængsel_reversed.wav,papir_reversed.wav,,,,,0,56,56,56,,,3,0.8247287000413053,9123,001,2025-12-06_17-05-17,
71,AM31ANS.JPG,SILENCE,no-prime,babble_78.wav,himlen_reversed.wav,taber_reversed.wav,,,,,0,57,57,57,,,1,0.8980693999910727,9123,001,2025-12-06_17-05-17,
194,AF30HAS.JPG,intim_compressed.wav,positive,babble_62.wav,syndig_reversed.wav,poesi_reversed.wav,,,,,0,58,58,58,,,9,0.911263499991037,9123,001,2025-12-06_17-05-17,
165,AM25ANS.JPG,avis_compressed.wav,neutral,babble_72.wav,avis_reversed.wav,misbrug_reversed.wav,,,,,0,59,59,59,,,3,1.4076004999806173,9123,001,2025-12-06_17-05-17,
54,AF19NES.JPG,salat_compressed.wav,neutral,babble_80.wav,hader_reversed.wav,tilfreds_reversed.wav,,,,,0,60,60,60,,,5,1.5988395999884233,9123,001,2025-12-06_17-05-17,
147,AF26ANS.JPG,leder_compressed.wav,positive,babble_70.wav,hjerte_reversed.wav,accept_reversed.wav,,,,,0,61,61,61,,,1,1.4792754999944009,9123,001,2025-12-06_17-05-17,
89,AF06ANS.JPG,nonsens_compressed.wav,neutral,babble_12.wav,baby_reversed.wav,syndig_reversed.wav,,,,,0,62,62,62,,,3,2.346247299981769,9123,001,2025-12-06_17-05-17,
60,AF22HAS.JPG,lækker_compressed.wav,positive,babble_89.wav,luksus_reversed.wav,finger_reversed.wav,,,,,0,63,63,63,,,8,0.4215667999815196,9123,001,2025-12-06_17-05-17,
160,AF26NES.JPG,rådden_compressed.wav,negative,babble_38.wav,pude_reversed.wav,viden_reversed.wav,,,,,0,64,64,64,,,5,1.013784000009764,9123,001,2025-12-06_17-05-17,
127,AM20NES.JPG,SILENCE,no-prime,babble_7.wav,patent_reversed.wav,ørken_reversed.wav,,,,,0,65,65,65,,,3,1.22542999999132,9123,001,2025-12-06_17-05-17,
156,AM18NES.JPG,SILENCE,no-prime,babble_91.wav,djævel_reversed.wav,fængsel_reversed.wav,,,,,0,66,66,66,,,2,1.3762441000435501,9123,001,2025-12-06_17-05-17,
150,AF03HAS.JPG,ørken_compressed.wav,negative,babble_24.wav,ønske_reversed.wav,kande_reversed.wav,,,,,0,67,67,67,,,7,0.9564472999772988,9123,001,2025-12-06_17-05-17,
133,AF24HAS.JPG,sikker_compressed.wav,positive,babble_22.wav,kæle_reversed.wav,bygning_reversed.wav,,,,,0,68,68,68,,,9,0.5151593000045978,9123,001,2025-12-06_17-05-17,
67,AF35NES.JPG,accept_compressed.wav,positive,babble_66.wav,boble_reversed.wav,misbrug_reversed.wav,,,,,0,69,69,69,,,4,0.8033440000144765,9123,001,2025-12-06_17-05-17,
80,AF09NES.JPG,taber_compressed.wav,negative,babble_59.wav,knude_reversed.wav,marked_reversed.wav,,,,,0,70,70,70,,,4,0.9238637000089511,9123,001,2025-12-06_17-05-17,
3,AF32ANS.JPG,maling_compressed.wav,neutral,babble_82.wav,rabies_reversed.wav,slave_reversed.wav,,,,,0,71,71,71,,,2,1.1701532999868505,9123,001,2025-12-06_17-05-17,
182,AM33HAS.JPG,penge_compressed.wav,positive,babble_1.wav,rabies_reversed.wav,redskab_reversed.wav,,,,,0,72,72,72,,,3,1.2990296999923885,9123,001,2025-12-06_17-05-17,
70,AM19ANS.JPG,SILENCE,no-prime,babble_14.wav,skuffe_reversed.wav,måned_reversed.wav,,,,,0,73,73,73,,,4,2.9212834000354633,9123,001,2025-12-06_17-05-17,
21,AF25HAS.JPG,himlen_compressed.wav,positive,babble_18.wav,lærer_reversed.wav,nøgle_reversed.wav,,,,,0,74,74,74,,,8,1.0463268000166863,9123,001,2025-12-06_17-05-17,
148,AM20HAS.JPG,skyldig_compressed.wav,negative,babble_25.wav,fremskridt_reversed.wav,tortur_reversed.wav,,,,,0,75,75,75,,,9,0.953609400021378,9123,001,2025-12-06_17-05-17,
1,AF23HAS.JPG,hånlig_compressed.wav,negative,babble_96.wav,hjerte_reversed.wav,rabies_reversed.wav,,,,,0,76,76,76,,,6,3.5864271000027657,9123,001,2025-12-06_17-05-17,
106,AF20NES.JPG,offer_compressed.wav,negative,babble_42.wav,salat_reversed.wav,ønske_reversed.wav,,,,,0,77,77,77,,,3,1.027004699979443,9123,001,2025-12-06_17-05-17,
63,AF35HAS.JPG,pjece_compressed.wav,neutral,babble_93.wav,tumor_reversed.wav,fase_reversed.wav,,,,,0,78,78,78,,,8,1.8012205999693833,9123,001,2025-12-06_17-05-17,
53,AM21HAS.JPG,ørken_compressed.wav,negative,babble_6.wav,poesi_reversed.wav,fiasko_reversed.wav,,,,,0,79,79,79,,,8,1.1185060000279918,9123,001,2025-12-06_17-05-17,
122,AF32NES.JPG,sandhed_compressed.wav,positive,babble_67.wav,nedbrud_reversed.wav,grusom_reversed.wav,,,,,0,80,80,80,,,3,0.5904256000067107,9123,001,2025-12-06_17-05-17,
47,AM10HAS.JPG,røver_compressed.wav,negative,babble_22.wav,jubel_reversed.wav,hage_reversed.wav,,,,,0,81,81,81,,,7,0.8694760000216775,9123,001,2025-12-06_17-05-17,
117,AM06ANS.JPG,SILENCE,no-prime,babble_10.wav,brutal_reversed.wav,blomstre_reversed.wav,,,,,0,82,82,82,,,2,0.6603982000378892,9123,001,2025-12-06_17-05-17,
177,AF04NES.JPG,flirte_compressed.wav,positive,babble_91.wav,fremskridt_reversed.wav,lampe_reversed.wav,,,,,0,83,83,83,,,4,1.1472573999781162,9123,001,2025-12-06_17-05-17,
16,AM27ANS.JPG,dæmpet_compressed.wav,neutral,babble_12.wav,gidsel_reversed.wav,konkurs_reversed.wav,,,,,0,84,84,84,,,2,1.866009799996391,9123,001,2025-12-06_17-05-17,
190,AM17ANS.JPG,konge_compressed.wav,positive,babble_25.wav,fremskridt_reversed.wav,redskab_reversed.wav,,,,,0,85,85,85,,,1,0.5243228999897838,9123,001,2025-12-06_17-05-17,
130,AF15NES.JPG,rabies_compressed.wav,negative,babble_28.wav,gratis_reversed.wav,misbrug_reversed.wav,,,,,0,86,86,86,,,3,0.6235904999775812,9123,001,2025-12-06_17-05-17,
112,AF02HAS.JPG,statue_compressed.wav,neutral,babble_96.wav,morder_reversed.wav,blomstre_reversed.wav,,,,,0,87,87,87,,,8,0.8851727999863215,9123,001,2025-12-06_17-05-17,
187,AM30HAS.JPG,frihed_compressed.wav,positive,babble_13.wav,himlen_reversed.wav,genstand_reversed.wav,,,,,0,88,88,88,,,7,0.865194000012707,9123,001,2025-12-06_17-05-17,
180,AM09HAS.JPG,SILENCE,no-prime,babble_89.wav,brutal_reversed.wav,grimme_reversed.wav,,,,,0,89,89,89,,,7,1.4877035000245087,9123,001,2025-12-06_17-05-17,
46,AF10HAS.JPG,bryllup_compressed.wav,positive,babble_43.wav,genstand_reversed.wav,bange_reversed.wav,,,,,0,90,90,90,,,7,1.4169777000206523,9123,001,2025-12-06_17-05-17,
52,AF29HAS.JPG,nonne_compressed.wav,neutral,babble_62.wav,trussel_reversed.wav,poesi_reversed.wav,,,,,0,91,91,91,,,8,1.1402085000299849,9123,001,2025-12-06_17-05-17,
171,AM18HAS.JPG,nedbrud_compressed.wav,negative,babble_6.wav,ønske_reversed.wav,ledning_reversed.wav,,,,,0,92,92,92,,,6,0.9131946000270545,9123,001,2025-12-06_17-05-17,
78,AF14NES.JPG,feber_compressed.wav,negative,babble_95.wav,fedme_reversed.wav,gratis_reversed.wav,,,,,0,93,93,93,,,2,3.24035710003227,9123,001,2025-12-06_17-05-17,
55,AM11ANS.JPG,SILENCE,no-prime,babble_14.wav,sejre_reversed.wav,brutal_reversed.wav,,,,,0,94,94,94,,,1,0.5252840000321157,9123,001,2025-12-06_17-05-17,
169,AM26HAS.JPG,patent_compressed.wav,neutral,babble_55.wav,rigdom_reversed.wav,respekt_reversed.wav,,,,,0,95,95,95,,,9,0.6966714999871328,9123,001,2025-12-06_17-05-17,
101,AM13NES.JPG,beskidt_compressed.wav,negative,babble_85.wav,rigdom_reversed.wav,pjece_reversed.wav,,,,,0,96,96,96,,,5,0.2506994000286795,9123,001,2025-12-06_17-05-17,
30,AF15ANS.JPG,ketchup_compressed.wav,neutral,babble_48.wav,vinde_reversed.wav,engel_reversed.wav,,,,,0,97,97,97,,,2,0.6662421000073664,9123,001,2025-12-06_17-05-17,
166,AM23ANS.JPG,SILENCE,no-prime,babble_32.wav,baby_reversed.wav,traume_reversed.wav,,,,,0,98,98,98,,,1,0.7709565000259317,9123,001,2025-12-06_17-05-17,
95,AM35NES.JPG,illoyal_compressed.wav,negative,babble_17.wav,voldtægt_reversed.wav,bange_reversed.wav,,,,,0,99,99,99,,,5,1.1767510999925435,9123,001,2025-12-06_17-05-17,
79,AF17HAS.JPG,SILENCE,no-prime,babble_90.wav,taber_reversed.wav,fængsel_reversed.wav,,,,,0,100,100,100,,,9,0.7948070999700576,9123,001,2025-12-06_17-05-17,
109,AM28HAS.JPG,SILENCE,no-prime,babble_13.wav,stjerne_reversed.wav,papir_reversed.wav,,,,,0,101,101,101,,,8,1.6524940999806859,9123,001,2025-12-06_17-05-17,
195,AF02NES.JPG,SILENCE,no-prime,babble_3.wav,lækker_reversed.wav,rotte_reversed.wav,,,,,0,102,102,102,,,3,4.684065300039947,9123,001,2025-12-06_17-05-17,
172,AM34NES.JPG,beundret_compressed.wav,positive,babble_7.wav,misbrug_reversed.wav,lækker_reversed.wav,,,,,0,103,103,103,,,4,0.7899122000089847,9123,001,2025-12-06_17-05-17,
51,AF13HAS.JPG,redning_compressed.wav,positive,babble_56.wav,jubel_reversed.wav,accept_reversed.wav,,,,,0,104,104,104,,,8,0.46282849996350706,9123,001,2025-12-06_17-05-17,
168,AF21ANS.JPG,redning_compressed.wav,positive,babble_66.wav,affald_reversed.wav,misbrug_reversed.wav,,,,,0,105,105,105,,,1,1.1167108999798074,9123,001,2025-12-06_17-05-17,
138,AM11NES.JPG,motor_compressed.wav,neutral,babble_90.wav,voldtægt_reversed.wav,marked_reversed.wav,,,,,0,106,106,106,,,3,0.7395327999838628,9123,001,2025-12-06_17-05-17,
102,AM22NES.JPG,cirkus_compressed.wav,positive,babble_98.wav,krise_reversed.wav,spænding_reversed.wav,,,,,0,107,107,107,,,5,1.3615949000231922,9123,001,2025-12-06_17-05-17,
153,AF17ANS.JPG,SILENCE,no-prime,babble_51.wav,cirkel_reversed.wav,fase_reversed.wav,,,,,0,108,108,108,,,3,1.0657398999901488,9123,001,2025-12-06_17-05-17,
119,AM15ANS.JPG,rabies_compressed.wav,negative,babble_1.wav,hjerte_reversed.wav,albue_reversed.wav,,,,,0,109,109,109,,,2,2.145052100007888,9123,001,2025-12-06_17-05-17,
131,AM11HAS.JPG,statue_compressed.wav,neutral,babble_94.wav,sollys_reversed.wav,forfald_reversed.wav,,,,,0,110,110,110,,,9,1.1066047999775037,9123,001,2025-12-06_17-05-17,
159,AF28NES.JPG,respekt_compressed.wav,positive,babble_1.wav,vindue_reversed.wav,violin_reversed.wav,,,,,0,111,111,111,,,6,0.7708159000030719,9123,001,2025-12-06_17-05-17,
161,AF01ANS.JPG,skyldig_compressed.wav,negative,babble_59.wav,kujon_reversed.wav,kæle_reversed.wav,,,,,0,112,112,112,,,2,0.8420174000202678,9123,001,2025-12-06_17-05-17,
124,AM25HAS.JPG,krise_compressed.wav,negative,babble_75.wav,sexet_reversed.wav,cirkel_reversed.wav,,,,,0,113,113,113,,,8,0.8761362000368536,9123,001,2025-12-06_17-05-17,
49,AF03ANS.JPG,genert_compressed.wav,neutral,babble_67.wav,fængsel_reversed.wav,traume_reversed.wav,,,,,0,114,114,114,,,2,0.6079316000104882,9123,001,2025-12-06_17-05-17,
37,AF22ANS.JPG,SILENCE,no-prime,babble_70.wav,sandhed_reversed.wav,skammel_reversed.wav,,,,,0,115,115,115,,,3,1.0693000000319444,9123,001,2025-12-06_17-05-17,
50,AF16NES.JPG,pude_compressed.wav,positive,babble_63.wav,modgang_reversed.wav,skyldig_reversed.wav,,,,,0,116,116,116,,,1,1.1606780999572948,9123,001,2025-12-06_17-05-17,
103,AM04ANS.JPG,SILENCE,no-prime,babble_56.wav,brænde_reversed.wav,talent_reversed.wav,,,,,0,117,117,117,,,3,0.8005313000176102,9123,001,2025-12-06_17-05-17,
69,AF08NES.JPG,kontor_compressed.wav,neutral,babble_37.wav,redning_reversed.wav,sikker_reversed.wav,,,,,0,118,118,118,,,4,0.8046962000080384,9123,001,2025-12-06_17-05-17,
167,AF31HAS.JPG,skuffe_compressed.wav,negative,babble_91.wav,rotte_reversed.wav,vandal_reversed.wav,,,,,0,119,119,119,,,8,0.8073009999934584,9123,001,2025-12-06_17-05-17,
64,AF25NES.JPG,bryllup_compressed.wav,positive,babble_99.wav,ledning_reversed.wav,museum_reversed.wav,,,,,0,120,120,120,,,5,1.0807885999674909,9123,001,2025-12-06_17-05-17,
108,AF10ANS.JPG,nedbrud_compressed.wav,negative,babble_4.wav,kontor_reversed.wav,ønske_reversed.wav,,,,,0,121,121,121,,,2,1.9937326000072062,9123,001,2025-12-06_17-05-17,
58,AF05NES.JPG,marked_compressed.wav,neutral,babble_58.wav,kontor_reversed.wav,talent_reversed.wav,,,,,0,122,122,122,,,2,0.7954796000267379,9123,001,2025-12-06_17-05-17,
170,AM09ANS.JPG,fjendtlig_compressed.wav,negative,babble_94.wav,måned_reversed.wav,cirkel_reversed.wav,,,,,0,123,123,123,,,1,0.680090999987442,9123,001,2025-12-06_17-05-17,
98,AF28ANS.JPG,rådden_compressed.wav,negative,babble_10.wav,nøgle_reversed.wav,bifald_reversed.wav,,,,,0,124,124,124,,,1,0.854205199982971,9123,001,2025-12-06_17-05-17,
200,AF32HAS.JPG,borddug_compressed.wav,neutral,babble_72.wav,kande_reversed.wav,sejre_reversed.wav,,,,,0,125,125,125,,,9,0.19012089999159798,9123,001,2025-12-06_17-05-17,
45,AM13ANS.JPG,trussel_compressed.wav,negative,babble_21.wav,offer_reversed.wav,væmmes_reversed.wav,,,,,0,126,126,126,,,2,1.129851099976804,9123,001,2025-12-06_17-05-17,
86,AF23NES.JPG,affald_compressed.wav,negative,babble_35.wav,redning_reversed.wav,sollys_reversed.wav,,,,,0,127,127,127,,,3,0.6902044999878854,9123,001,2025-12-06_17-05-17,
118,AM07NES.JPG,forkert_compressed.wav,negative,babble_74.wav,illoyal_reversed.wav,statue_reversed.wav,,,,,0,128,128,128,,,5,0.5002588999923319,9123,001,2025-12-06_17-05-17,
24,AM16HAS.JPG,vindue_compressed.wav,neutral,babble_23.wav,konkurs_reversed.wav,grimme_reversed.wav,,,,,0,129,129,129,,,8,0.49219339998671785,9123,001,2025-12-06_17-05-17,
7,AF07HAS.JPG,rotte_compressed.wav,negative,babble_83.wav,rådden_reversed.wav,kujon_reversed.wav,,,,,0,130,130,130,,,9,0.7024339000345208,9123,001,2025-12-06_17-05-17,
9,AM21ANS.JPG,syndig_compressed.wav,negative,babble_78.wav,fiasko_reversed.wav,væmmes_reversed.wav,,,,,0,131,131,131,,,2,0.4999726999667473,9123,001,2025-12-06_17-05-17,
27,AM26ANS.JPG,banner_compressed.wav,neutral,babble_61.wav,baby_reversed.wav,gave_reversed.wav,,,,,0,132,132,132,,,1,0.598180599976331,9123,001,2025-12-06_17-05-17,
104,AM27HAS.JPG,natur_compressed.wav,positive,babble_25.wav,røver_reversed.wav,patent_reversed.wav,,,,,0,133,133,133,,,6,0.8492873999639414,9123,001,2025-12-06_17-05-17,
144,AF33NES.JPG,hage_compressed.wav,neutral,babble_44.wav,blodig_reversed.wav,trofæ_reversed.wav,,,,,0,134,134,134,,,4,1.575092000013683,9123,001,2025-12-06_17-05-17,
125,AF25ANS.JPG,luksus_compressed.wav,positive,babble_86.wav,gidsel_reversed.wav,putte_reversed.wav,,,,,0,135,135,135,,,1,0.652761899982579,9123,001,2025-12-06_17-05-17,
199,AM24NES.JPG,søsyg_compressed.wav,negative,babble_50.wav,jubel_reversed.wav,grimme_reversed.wav,,,,,0,136,136,136,,,5,1.7959184999926947,9123,001,2025-12-06_17-05-17,
141,AM35HAS.JPG,penge_compressed.wav,positive,babble_63.wav,spise_reversed.wav,maling_reversed.wav,,,,,0,137,137,137,,,8,1.2648322000168264,9123,001,2025-12-06_17-05-17,
135,AF12NES.JPG,sandhed_compressed.wav,positive,babble_88.wav,utro_reversed.wav,brutal_reversed.wav,,,,,0,138,138,138,,,2,1.6702119000256062,9123,001,2025-12-06_17-05-17,
158,AF20HAS.JPG,natur_compressed.wav,positive,babble_99.wav,tortur_reversed.wav,luksus_reversed.wav,,,,,0,139,139,139,,,9,2.019443599972874,9123,001,2025-12-06_17-05-17,
115,AM30NES.JPG,frygtsom_compressed.wav,negative,babble_27.wav,vandal_reversed.wav,giftig_reversed.wav,,,,,0,140,140,140,,,2,1.906551300024148,9123,001,2025-12-06_17-05-17,
66,AF30NES.JPG,SILENCE,no-prime,babble_71.wav,fængsel_reversed.wav,poesi_reversed.wav,,,,,0,141,141,141,,,5,0.9119973999913782,9123,001,2025-12-06_17-05-17,
184,AF16ANS.JPG,bombe_compressed.wav,negative,babble_23.wav,redning_reversed.wav,tilfreds_reversed.wav,,,,,0,142,142,142,,,1,0.7098806999856606,9123,001,2025-12-06_17-05-17,
157,AF01NES.JPG,blomstre_compressed.wav,positive,babble_31.wav,sexet_reversed.wav,dollar_reversed.wav,,,,,0,143,143,143,,,4,1.851056499988772,9123,001,2025-12-06_17-05-17,
48,AF35ANS.JPG,forår_compressed.wav,positive,babble_44.wav,blodig_reversed.wav,opstemt_reversed.wav,,,,,0,144,144,144,,,2,0.3980559000046924,9123,001,2025-12-06_17-05-17,
111,AF08HAS.JPG,SILENCE,no-prime,babble_25.wav,mave_reversed.wav,sindssyg_reversed.wav,,,,,0,145,145,145,,,9,0.7313137999735773,9123,001,2025-12-06_17-05-17,
193,AF19HAS.JPG,intim_compressed.wav,positive,babble_99.wav,maling_reversed.wav,tumor_reversed.wav,,,,,0,146,146,146,,,9,0.6377343999920413,9123,001,2025-12-06_17-05-17,
105,AM32NES.JPG,lækker_compressed.wav,positive,babble_30.wav,måned_reversed.wav,fremskridt_reversed.wav,,,,,0,147,147,147,,,2,0.947558999992907,9123,001,2025-12-06_17-05-17,
14,AF27HAS.JPG,patent_compressed.wav,neutral,babble_41.wav,latter_reversed.wav,varme_reversed.wav,,,,,0,148,148,148,,,8,0.6152673999895342,9123,001,2025-12-06_17-05-17,
34,AM08ANS.JPG,luksus_compressed.wav,positive,babble_64.wav,sindssyg_reversed.wav,tortur_reversed.wav,,,,,0,149,149,149,,,2,0.6472833000007086,9123,001,2025-12-06_17-05-17,
73,AM12NES.JPG,redning_compressed.wav,positive,babble_17.wav,brutal_reversed.wav,leder_reversed.wav,,,,,0,150,150,150,,,4,0.46972270001424477,9123,001,2025-12-06_17-05-17,
42,AM06NES.JPG,sollys_compressed.wav,positive,babble_89.wav,sygdom_reversed.wav,papir_reversed.wav,,,,,0,151,151,151,,,2,0.5297737999935634,9123,001,2025-12-06_17-05-17,
20,AM23HAS.JPG,SILENCE,no-prime,babble_37.wav,fjollet_reversed.wav,violin_reversed.wav,,,,,0,152,152,152,,,8,0.41385740000987425,9123,001,2025-12-06_17-05-17,
110,AM17NES.JPG,stjerne_compressed.wav,positive,babble_77.wav,sandhed_reversed.wav,opstemt_reversed.wav,,,,,0,153,153,153,,,2,1.2734884000383317,9123,001,2025-12-06_17-05-17,
6,AF20ANS.JPG,SILENCE,no-prime,babble_16.wav,misbrug_reversed.wav,taxa_reversed.wav,,,,,0,154,154,154,,,1,0.7447245999937877,9123,001,2025-12-06_17-05-17,
183,AM15HAS.JPG,bifald_compressed.wav,positive,babble_82.wav,mave_reversed.wav,patent_reversed.wav,,,,,0,155,155,155,,,8,0.503371300001163,9123,001,2025-12-06_17-05-17,
75,AM29HAS.JPG,intim_compressed.wav,positive,babble_71.wav,plakat_reversed.wav,søsyg_reversed.wav,,,,,0,156,156,156,,,8,0.5701169999665581,9123,001,2025-12-06_17-05-17,
82,AM04HAS.JPG,SILENCE,no-prime,babble_21.wav,dæmpet_reversed.wav,succes_reversed.wav,,,,,0,157,157,157,,,9,0.6492085999925621,9123,001,2025-12-06_17-05-17,
26,AM35ANS.JPG,SILENCE,no-prime,babble_6.wav,metal_reversed.wav,kujon_reversed.wav,,,,,0,158,158,158,,,3,0.3032464000280015,9123,001,2025-12-06_17-05-17,
81,AM25NES.JPG,sindssyg_compressed.wav,negative,babble_65.wav,djævel_reversed.wav,væmmes_reversed.wav,,,,,0,159,159,159,,,2,0.28580460004741326,9123,001,2025-12-06_17-05-17,
44,AM05NES.JPG,hårnål_compressed.wav,neutral,babble_82.wav,slave_reversed.wav,rædsel_reversed.wav,,,,,0,160,160,160,,,2,0.7529085999703966,9123,001,2025-12-06_17-05-17,
68,AM33NES.JPG,SILENCE,no-prime,babble_48.wav,konge_reversed.wav,venlig_reversed.wav,,,,,0,161,161,161,,,2,1.3047498000087216,9123,001,2025-12-06_17-05-17,
90,AM34ANS.JPG,afskyr_compressed.wav,negative,babble_38.wav,hånlig_reversed.wav,kande_reversed.wav,,,,,0,162,162,162,,,1,0.9189363999757916,9123,001,2025-12-06_17-05-17,
185,AF17NES.JPG,forår_compressed.wav,positive,babble_43.wav,fiasko_reversed.wav,kedel_reversed.wav,,,,,0,163,163,163,,,4,0.5632426000083797,9123,001,2025-12-06_17-05-17,
179,AM02HAS.JPG,opstemt_compressed.wav,positive,babble_89.wav,glæde_reversed.wav,grimme_reversed.wav,,,,,0,164,164,164,,,7,0.9005739000276662,9123,001,2025-12-06_17-05-17,
93,AM03ANS.JPG,rotte_compressed.wav,negative,babble_58.wav,bygning_reversed.wav,vinde_reversed.wav,,,,,0,165,165,165,,,1,0.33308820001548156,9123,001,2025-12-06_17-05-17,
123,AF18HAS.JPG,drukne_compressed.wav,negative,babble_75.wav,trofæ_reversed.wav,taxa_reversed.wav,,,,,0,166,166,166,,,9,0.5457816999987699,9123,001,2025-12-06_17-05-17,
28,AF31ANS.JPG,SILENCE,no-prime,babble_68.wav,marked_reversed.wav,forfald_reversed.wav,,,,,0,167,167,167,,,4,1.0964309999835677,9123,001,2025-12-06_17-05-17,
61,AF12HAS.JPG,jubel_compressed.wav,positive,babble_28.wav,varme_reversed.wav,dæmpet_reversed.wav,,,,,0,168,168,168,,,5,1.0958345999824814,9123,001,2025-12-06_17-05-17,
8,AF28HAS.JPG,slagtning_compressed.wav,negative,babble_28.wav,misbrug_reversed.wav,kontor_reversed.wav,,,,,0,169,169,169,,,7,0.123454499989748,9123,001,2025-12-06_17-05-17,
126,AM14HAS.JPG,ønske_compressed.wav,positive,babble_93.wav,kedel_reversed.wav,kugle_reversed.wav,,,,,0,170,170,170,,,8,0.7974884000141174,9123,001,2025-12-06_17-05-17,
152,AF01HAS.JPG,SILENCE,no-prime,babble_5.wav,fjollet_reversed.wav,nonsens_reversed.wav,,,,,0,171,171,171,,,9,0.6931088999845088,9123,001,2025-12-06_17-05-17,
11,AF31NES.JPG,tilfreds_compressed.wav,positive,babble_47.wav,banner_reversed.wav,tilfreds_reversed.wav,,,,,0,172,172,172,,,3,1.7292286999872886,9123,001,2025-12-06_17-05-17,
87,AF21NES.JPG,flirte_compressed.wav,positive,babble_3.wav,rabies_reversed.wav,voldtægt_reversed.wav,,,,,0,173,173,173,,,2,0.6087454000371508,9123,001,2025-12-06_17-05-17,
13,AM29NES.JPG,tumor_compressed.wav,negative,babble_49.wav,rotte_reversed.wav,regnbue_reversed.wav,,,,,0,174,174,174,,,5,0.5759101999574341,9123,001,2025-12-06_17-05-17,
83,AM16NES.JPG,engel_compressed.wav,positive,babble_47.wav,sejre_reversed.wav,taber_reversed.wav,,,,,0,175,175,175,,,4,0.8606784000294283,9123,001,2025-12-06_17-05-17,
18,AM12HAS.JPG,ankel_compressed.wav,neutral,babble_82.wav,finger_reversed.wav,sæde_reversed.wav,,,,,0,176,176,176,,,8,0.6238968999823555,9123,001,2025-12-06_17-05-17,
23,AF19ANS.JPG,SILENCE,no-prime,babble_41.wav,boble_reversed.wav,kugle_reversed.wav,,,,,0,177,177,177,,,1,0.5572838999796659,9123,001,2025-12-06_17-05-17,
84,AM10NES.JPG,bombe_compressed.wav,negative,babble_2.wav,diamant_reversed.wav,motor_reversed.wav,,,,,0,178,178,178,,,4,0.9889756999909878,9123,001,2025-12-06_17-05-17,
39,AF02ANS.JPG,statue_compressed.wav,neutral,babble_12.wav,rædsel_reversed.wav,bygning_reversed.wav,,,,,0,179,179,179,,,1,0.935085499950219,9123,001,2025-12-06_17-05-17,
155,AF29NES.JPG,metal_compressed.wav,neutral,babble_51.wav,kage_reversed.wav,rabies_reversed.wav,,,,,0,180,180,180,,,5,0.567769400018733,9123,001,2025-12-06_17-05-17,
76,AM08HAS.JPG,sikker_compressed.wav,positive,babble_56.wav,hader_reversed.wav,boble_reversed.wav,,,,,0,181,181,181,,,9,0.754683599981945,9123,001,2025-12-06_17-05-17,
134,AF33HAS.JPG,engel_compressed.wav,positive,babble_4.wav,blomstre_reversed.wav,vandal_reversed.wav,,,,,0,182,182,182,,,9,0.7065758000244386,9123,001,2025-12-06_17-05-17,
56,AF22NES.JPG,rigdom_compressed.wav,positive,babble_57.wav,gidsel_reversed.wav,oprør_reversed.wav,,,,,0,183,183,183,,,3,0.7595389000489376,9123,001,2025-12-06_17-05-17,
96,AF06NES.JPG,morder_compressed.wav,negative,babble_36.wav,venlig_reversed.wav,sæde_reversed.wav,,,,,0,184,184,184,,,5,0.5350153000326827,9123,001,2025-12-06_17-05-17,
136,AF33ANS.JPG,grimme_compressed.wav,negative,babble_74.wav,respekt_reversed.wav,nonsens_reversed.wav,,,,,0,185,185,185,,,2,0.595825300028082,9123,001,2025-12-06_17-05-17,
35,AF27NES.JPG,penge_compressed.wav,positive,babble_1.wav,skyldig_reversed.wav,avis_reversed.wav,,,,,0,186,186,186,,,4,0.5997510000015609,9123,001,2025-12-06_17-05-17,
5,AF11HAS.JPG,nonsens_compressed.wav,neutral,babble_44.wav,fedme_reversed.wav,oprør_reversed.wav,,,,,0,187,187,187,,,8,1.0810650999774225,9123,001,2025-12-06_17-05-17,
17,AM19HAS.JPG,SILENCE,no-prime,babble_87.wav,natur_reversed.wav,sikker_reversed.wav,,,,,0,188,188,188,,,9,0.6101298999856226,9123,001,2025-12-06_17-05-17,
72,AF11ANS.JPG,bryllup_compressed.wav,positive,babble_5.wav,knude_reversed.wav,forfald_reversed.wav,,,,,0,189,189,189,,,2,2.754693299997598,9123,001,2025-12-06_17-05-17,
62,AM20ANS.JPG,pjece_compressed.wav,neutral,babble_15.wav,museum_reversed.wav,ørken_reversed.wav,,,,,0,190,190,190,,,3,1.8545444999472238,9123,001,2025-12-06_17-05-17,
163,AM02NES.JPG,grusom_compressed.wav,negative,babble_36.wav,hånlig_reversed.wav,ketchup_reversed.wav,,,,,0,191,191,191,,,1,0.5017639999859966,9123,001,2025-12-06_17-05-17,
97,AF05HAS.JPG,modgang_compressed.wav,negative,babble_72.wav,plakat_reversed.wav,nonne_reversed.wav,,,,,0,192,192,192,,,7,1.2489094999618828,9123,001,2025-12-06_17-05-17,
173,AM28ANS.JPG,vinde_compressed.wav,positive,babble_92.wav,mester_reversed.wav,viden_reversed.wav,,,,,0,193,193,193,,,1,0.15894679998746142,9123,001,2025-12-06_17-05-17,
