trial_i,face_file,prime_file,prime_valence,babbling_file,mask1_file,mask2_file,practice.thisRepN,practice.thisTrialN,practice.thisN,practice.thisIndex,main.thisRepN,main.thisTrialN,main.thisN,main.thisIndex,thisRow.t,notes,response_key,rt,Participant ID,Session,date,
173,AM14NES.JPG,marked_compressed.wav,neutral,babble_4.wav,papir_reversed.wav,viden_reversed.wav,0,0,0,0,0,-1,-1,0,,,6,5.019680958001118,real_4353,001,2025-11-24_10-26-02,
24,AF29NES.JPG,violin_compressed.wav,neutral,babble_63.wav,ketchup_reversed.wav,søsyg_reversed.wav,0,1,1,1,0,-1,-1,0,,,8,86.91156495799805,real_4353,001,2025-11-24_10-26-02,
84,AM08ANS.JPG,SILENCE,no-prime,babble_99.wav,humor_reversed.wav,kontor_reversed.wav,0,2,2,2,0,-1,-1,0,,,1,1.587434500004747,real_4353,001,2025-11-24_10-26-02,
76,AM07NES.JPG,SILENCE,no-prime,babble_19.wav,kontor_reversed.wav,ketchup_reversed.wav,0,3,3,3,0,-1,-1,0,,,2,1.6712775830019382,real_4353,001,2025-11-24_10-26-02,
58,AM18ANS.JPG,redning_compressed.wav,positive,babble_89.wav,baby_reversed.wav,festlig_reversed.wav,0,4,4,4,0,-1,-1,0,,,2,0.5758137500015437,real_4353,001,2025-11-24_10-26-02,
155,AF14HAS.JPG,offer_compressed.wav,negative,babble_26.wav,skammel_reversed.wav,ensom_reversed.wav,0,5,5,5,0,-1,-1,0,,,8,1.2999486670014448,real_4353,001,2025-11-24_10-26-02,
130,AM07ANS.JPG,sandhed_compressed.wav,positive,babble_33.wav,avis_reversed.wav,rædsel_reversed.wav,,,,,0,0,0,0,,,1,0.31349979100195924,real_4353,001,2025-11-24_10-26-02,
190,AM04ANS.JPG,cirkus_compressed.wav,positive,babble_10.wav,hader_reversed.wav,borddug_reversed.wav,,,,,0,1,1,1,,,3,0.1055811249971157,real_4353,001,2025-11-24_10-26-02,
129,AF29HAS.JPG,djævel_compressed.wav,negative,babble_59.wav,vinde_reversed.wav,taxa_reversed.wav,,,,,0,2,2,2,,,6,0.5844592499997816,real_4353,001,2025-11-24_10-26-02,
45,AF18NES.JPG,slave_compressed.wav,negative,babble_41.wav,viden_reversed.wav,konge_reversed.wav,,,,,0,3,3,3,,,4,1.2920018750010058,real_4353,001,2025-11-24_10-26-02,
151,AF17ANS.JPG,søsyg_compressed.wav,negative,babble_27.wav,nøgle_reversed.wav,misbrug_reversed.wav,,,,,0,4,4,4,,,5,1.6056574579997687,real_4353,001,2025-11-24_10-26-02,
137,AF13ANS.JPG,gade_compressed.wav,neutral,babble_66.wav,bange_reversed.wav,metal_reversed.wav,,,,,0,5,5,5,,,3,1.0661959589997423,real_4353,001,2025-11-24_10-26-02,
12,AM18HAS.JPG,maling_compressed.wav,neutral,babble_85.wav,banner_reversed.wav,voldtægt_reversed.wav,,,,,0,6,6,6,,,8,0.9112395839983947,real_4353,001,2025-11-24_10-26-02,
44,AM05NES.JPG,albue_compressed.wav,neutral,babble_72.wav,frygtsom_reversed.wav,affald_reversed.wav,,,,,0,7,7,7,,,4,1.3608237080043182,real_4353,001,2025-11-24_10-26-02,
133,AM20ANS.JPG,SILENCE,no-prime,babble_5.wav,ketchup_reversed.wav,ferie_reversed.wav,,,,,0,8,8,8,,,4,3.168358957998862,real_4353,001,2025-11-24_10-26-02,
65,AM17ANS.JPG,venlig_compressed.wav,positive,babble_36.wav,vindue_reversed.wav,konge_reversed.wav,,,,,0,9,9,9,,,3,1.4609782089974033,real_4353,001,2025-11-24_10-26-02,
154,AM35NES.JPG,hader_compressed.wav,negative,babble_52.wav,grimme_reversed.wav,passion_reversed.wav,,,,,0,10,10,10,,,4,1.1034389170017675,real_4353,001,2025-11-24_10-26-02,
62,AM13HAS.JPG,kiste_compressed.wav,negative,babble_10.wav,skade_reversed.wav,festlig_reversed.wav,,,,,0,11,11,11,,,6,0.5308500829996774,real_4353,001,2025-11-24_10-26-02,
194,AM26HAS.JPG,slave_compressed.wav,negative,babble_14.wav,regnbue_reversed.wav,rotte_reversed.wav,,,,,0,12,12,12,,,4,1.0133147919987096,real_4353,001,2025-11-24_10-26-02,
150,AF02ANS.JPG,kande_compressed.wav,neutral,babble_96.wav,syndig_reversed.wav,hjerte_reversed.wav,,,,,0,13,13,13,,,4,0.5056603330012877,real_4353,001,2025-11-24_10-26-02,
180,AM26ANS.JPG,varme_compressed.wav,positive,babble_5.wav,bange_reversed.wav,statue_reversed.wav,,,,,0,14,14,14,,,2,0.7828798330010613,real_4353,001,2025-11-24_10-26-02,
157,AM10ANS.JPG,ketchup_compressed.wav,neutral,babble_14.wav,stjerne_reversed.wav,ensom_reversed.wav,,,,,0,15,15,15,,,2,0.5381861660061986,real_4353,001,2025-11-24_10-26-02,
78,AM20NES.JPG,SILENCE,no-prime,babble_47.wav,morder_reversed.wav,slave_reversed.wav,,,,,0,16,16,16,,,2,1.9931635840039235,real_4353,001,2025-11-24_10-26-02,
48,AF27ANS.JPG,ydmyg_compressed.wav,neutral,babble_43.wav,røver_reversed.wav,oprør_reversed.wav,,,,,0,17,17,17,,,4,0.9731840000022203,real_4353,001,2025-11-24_10-26-02,
49,AF27NES.JPG,feber_compressed.wav,negative,babble_61.wav,bange_reversed.wav,himmel_reversed.wav,,,,,0,18,18,18,,,6,2.5684346669950173,real_4353,001,2025-11-24_10-26-02,
160,AF20HAS.JPG,sollys_compressed.wav,positive,babble_79.wav,mave_reversed.wav,ørken_reversed.wav,,,,,0,19,19,19,,,9,0.5248685420010588,real_4353,001,2025-11-24_10-26-02,
200,AF04NES.JPG,skuffe_compressed.wav,negative,babble_80.wav,glæde_reversed.wav,leder_reversed.wav,,,,,0,20,20,20,,,4,2.1285344579955563,real_4353,001,2025-11-24_10-26-02,
52,AF05ANS.JPG,borddug_compressed.wav,neutral,babble_26.wav,vinde_reversed.wav,sexet_reversed.wav,,,,,0,21,21,21,,,3,1.367845667002257,real_4353,001,2025-11-24_10-26-02,
198,AF17NES.JPG,trofæ_compressed.wav,positive,babble_82.wav,jubel_reversed.wav,viden_reversed.wav,,,,,0,22,22,22,,,5,1.0110395000010612,real_4353,001,2025-11-24_10-26-02,
169,AM13ANS.JPG,trofæ_compressed.wav,positive,babble_34.wav,slagtning_reversed.wav,latter_reversed.wav,,,,,0,23,23,23,,,3,0.7023993749971851,real_4353,001,2025-11-24_10-26-02,
8,AM16HAS.JPG,SILENCE,no-prime,babble_6.wav,redskab_reversed.wav,røver_reversed.wav,,,,,0,24,24,24,,,9,0.6749263329984387,real_4353,001,2025-11-24_10-26-02,
114,AF21NES.JPG,kæle_compressed.wav,positive,babble_43.wav,trussel_reversed.wav,pervers_reversed.wav,,,,,0,25,25,25,,,4,1.483967832995404,real_4353,001,2025-11-24_10-26-02,
71,AF26HAS.JPG,SILENCE,no-prime,babble_73.wav,slagtning_reversed.wav,frygtsom_reversed.wav,,,,,0,26,26,26,,,9,1.4458507089948398,real_4353,001,2025-11-24_10-26-02,
22,AM09NES.JPG,ydmyg_compressed.wav,neutral,babble_40.wav,pervers_reversed.wav,beskidt_reversed.wav,,,,,0,27,27,27,,,3,2.61903995800094,real_4353,001,2025-11-24_10-26-02,
25,AM01HAS.JPG,spænding_compressed.wav,positive,babble_20.wav,genstand_reversed.wav,nonsens_reversed.wav,,,,,0,28,28,28,,,8,0.4558664169962867,real_4353,001,2025-11-24_10-26-02,
99,AM35HAS.JPG,feber_compressed.wav,negative,babble_1.wav,finger_reversed.wav,tortur_reversed.wav,,,,,0,29,29,29,,,9,0.07513733300584136,real_4353,001,2025-11-24_10-26-02,
21,AM34ANS.JPG,museum_compressed.wav,neutral,babble_96.wav,konkurs_reversed.wav,gade_reversed.wav,,,,,0,30,30,30,,,2,0.26938841700030025,real_4353,001,2025-11-24_10-26-02,
85,AF09ANS.JPG,kugle_compressed.wav,neutral,babble_83.wav,fedme_reversed.wav,kæle_reversed.wav,,,,,0,31,31,31,,,2,0.1613264999978128,real_4353,001,2025-11-24_10-26-02,
80,AF32ANS.JPG,skønhed_compressed.wav,positive,babble_1.wav,vindue_reversed.wav,gaffel_reversed.wav,,,,,0,32,32,32,,,1,0.2887360000022454,real_4353,001,2025-11-24_10-26-02,
69,AF29ANS.JPG,penge_compressed.wav,positive,babble_4.wav,blomstre_reversed.wav,fjollet_reversed.wav,,,,,0,33,33,33,,,3,1.380433541999082,real_4353,001,2025-11-24_10-26-02,
31,AM17NES.JPG,SILENCE,no-prime,babble_92.wav,festlig_reversed.wav,fiasko_reversed.wav,,,,,0,34,34,34,,,4,0.3231099160038866,real_4353,001,2025-11-24_10-26-02,
111,AM04NES.JPG,SILENCE,no-prime,babble_91.wav,taxa_reversed.wav,passion_reversed.wav,,,,,0,35,35,35,,,5,0.23924112500390038,real_4353,001,2025-11-24_10-26-02,
161,AM09HAS.JPG,SILENCE,no-prime,babble_20.wav,talent_reversed.wav,gave_reversed.wav,,,,,0,36,36,36,,,9,0.021441707998747006,real_4353,001,2025-11-24_10-26-02,
16,AM32ANS.JPG,sindssyg_compressed.wav,negative,babble_1.wav,patent_reversed.wav,utro_reversed.wav,,,,,0,37,37,37,,,4,0.311450250002963,real_4353,001,2025-11-24_10-26-02,
167,AM06ANS.JPG,sygdom_compressed.wav,negative,babble_14.wav,regnbue_reversed.wav,sexet_reversed.wav,,,,,0,38,38,38,,,1,0.3356894579992513,real_4353,001,2025-11-24_10-26-02,
18,AF32NES.JPG,bombe_compressed.wav,negative,babble_1.wav,tortur_reversed.wav,latter_reversed.wav,,,,,0,39,39,39,,,4,0.18516125000314787,real_4353,001,2025-11-24_10-26-02,
72,AM33HAS.JPG,glæde_compressed.wav,positive,babble_53.wav,tumor_reversed.wav,modgang_reversed.wav,,,,,0,40,40,40,,,3,0.6688342499983264,real_4353,001,2025-11-24_10-26-02,
177,AF06ANS.JPG,forår_compressed.wav,positive,babble_54.wav,rotte_reversed.wav,papir_reversed.wav,,,,,0,41,41,41,,,2,2.0806780830025673,real_4353,001,2025-11-24_10-26-02,
64,AM04HAS.JPG,SILENCE,no-prime,babble_4.wav,fase_reversed.wav,kontor_reversed.wav,,,,,0,42,42,42,,,9,0.7940514170040842,real_4353,001,2025-11-24_10-26-02,
1,AM33NES.JPG,SILENCE,no-prime,babble_16.wav,enhed_reversed.wav,redskab_reversed.wav,,,,,0,43,43,43,,,4,1.683792749994609,real_4353,001,2025-11-24_10-26-02,
60,AM27ANS.JPG,himlen_compressed.wav,positive,babble_69.wav,jubel_reversed.wav,forkert_reversed.wav,,,,,0,44,44,44,,,2,0.1334934170008637,real_4353,001,2025-11-24_10-26-02,
29,AF01ANS.JPG,poesi_compressed.wav,neutral,babble_52.wav,diamant_reversed.wav,pude_reversed.wav,,,,,0,45,45,45,,,2,0.6127426249950076,real_4353,001,2025-11-24_10-26-02,
139,AF01NES.JPG,ørken_compressed.wav,negative,babble_52.wav,motor_reversed.wav,syndig_reversed.wav,,,,,0,46,46,46,,,5,0.004459415999008343,real_4353,001,2025-11-24_10-26-02,
191,AF19NES.JPG,SILENCE,no-prime,babble_31.wav,patent_reversed.wav,finger_reversed.wav,,,,,0,47,47,47,,,5,0.8343835419946117,real_4353,001,2025-11-24_10-26-02,
61,AF20ANS.JPG,giftig_compressed.wav,negative,babble_32.wav,tumor_reversed.wav,fjollet_reversed.wav,,,,,0,48,48,48,,,1,0.7739605840033619,real_4353,001,2025-11-24_10-26-02,
56,AF28NES.JPG,bange_compressed.wav,negative,babble_15.wav,sygdom_reversed.wav,humor_reversed.wav,,,,,0,49,49,49,,,5,0.9985016670034383,real_4353,001,2025-11-24_10-26-02,
181,AM24NES.JPG,salat_compressed.wav,neutral,babble_21.wav,måned_reversed.wav,kærtegn_reversed.wav,,,,,0,50,50,50,,,5,0.5707418749952922,real_4353,001,2025-11-24_10-26-02,
162,AF11ANS.JPG,nedbrud_compressed.wav,negative,babble_91.wav,passion_reversed.wav,voldtægt_reversed.wav,,,,,0,51,51,51,,,2,0.3851820000054431,real_4353,001,2025-11-24_10-26-02,
117,AF08NES.JPG,illoyal_compressed.wav,negative,babble_56.wav,ferie_reversed.wav,vandfald_reversed.wav,,,,,0,52,52,52,,,5,0.9218322910019197,real_4353,001,2025-11-24_10-26-02,
126,AF24HAS.JPG,bange_compressed.wav,negative,babble_9.wav,grusom_reversed.wav,konkurs_reversed.wav,,,,,0,53,53,53,,,9,0.32000966699706623,real_4353,001,2025-11-24_10-26-02,
90,AF16NES.JPG,succes_compressed.wav,positive,babble_21.wav,skuffe_reversed.wav,pude_reversed.wav,,,,,0,54,54,54,,,3,0.6118267080018995,real_4353,001,2025-11-24_10-26-02,
39,AF34NES.JPG,kærtegn_compressed.wav,positive,babble_89.wav,ledning_reversed.wav,vandfald_reversed.wav,,,,,0,55,55,55,,,3,1.506049333998817,real_4353,001,2025-11-24_10-26-02,
93,AM22HAS.JPG,selvmord_compressed.wav,negative,babble_93.wav,flirte_reversed.wav,kujon_reversed.wav,,,,,0,56,56,56,,,9,0.02006916599930264,real_4353,001,2025-11-24_10-26-02,
68,AM21ANS.JPG,morder_compressed.wav,negative,babble_44.wav,kæle_reversed.wav,skyldig_reversed.wav,,,,,0,57,57,57,,,1,0.12510987499990733,real_4353,001,2025-11-24_10-26-02,
9,AF34HAS.JPG,SILENCE,no-prime,babble_31.wav,accept_reversed.wav,jubel_reversed.wav,,,,,0,58,58,58,,,8,0.15298337500280468,real_4353,001,2025-11-24_10-26-02,
27,AF05NES.JPG,illoyal_compressed.wav,negative,babble_85.wav,frygtsom_reversed.wav,tortur_reversed.wav,,,,,0,59,59,59,,,6,0.362389207999513,real_4353,001,2025-11-24_10-26-02,
100,AF09HAS.JPG,SILENCE,no-prime,babble_74.wav,konge_reversed.wav,offer_reversed.wav,,,,,0,60,60,60,,,8,0.04097995900519891,real_4353,001,2025-11-24_10-26-02,
192,AM33ANS.JPG,utro_compressed.wav,negative,babble_65.wav,syndig_reversed.wav,feber_reversed.wav,,,,,0,61,61,61,,,5,0.24311937500169734,real_4353,001,2025-11-24_10-26-02,
131,AF31ANS.JPG,syndig_compressed.wav,negative,babble_25.wav,baby_reversed.wav,måned_reversed.wav,,,,,0,62,62,62,,,1,0.23648654199496377,real_4353,001,2025-11-24_10-26-02,
6,AM08HAS.JPG,sindssyg_compressed.wav,negative,babble_43.wav,sæde_reversed.wav,natur_reversed.wav,,,,,0,63,63,63,,,6,0.6926859590021195,real_4353,001,2025-11-24_10-26-02,
37,AM26NES.JPG,venlig_compressed.wav,positive,babble_46.wav,nonsens_reversed.wav,rædsel_reversed.wav,,,,,0,64,64,64,,,2,0.35110333399643423,real_4353,001,2025-11-24_10-26-02,
142,AM15NES.JPG,SILENCE,no-prime,babble_9.wav,beskidt_reversed.wav,sygdom_reversed.wav,,,,,0,65,65,65,,,5,0.6416805410044617,real_4353,001,2025-11-24_10-26-02,
19,AF30HAS.JPG,SILENCE,no-prime,babble_5.wav,kiste_reversed.wav,affald_reversed.wav,,,,,0,66,66,66,,,7,0.27617012499831617,real_4353,001,2025-11-24_10-26-02,
141,AM03ANS.JPG,kæle_compressed.wav,positive,babble_17.wav,frihed_reversed.wav,venlig_reversed.wav,,,,,0,67,67,67,,,1,0.40724933299497934,real_4353,001,2025-11-24_10-26-02,
17,AF27HAS.JPG,skade_compressed.wav,negative,babble_81.wav,frihed_reversed.wav,grusom_reversed.wav,,,,,0,68,68,68,,,8,0.33428558300511213,real_4353,001,2025-11-24_10-26-02,
188,AM32HAS.JPG,SILENCE,no-prime,babble_35.wav,respekt_reversed.wav,baby_reversed.wav,,,,,0,69,69,69,,,6,0.26833541699306807,real_4353,001,2025-11-24_10-26-02,
166,AM35ANS.JPG,fængsel_compressed.wav,negative,babble_54.wav,diamant_reversed.wav,slave_reversed.wav,,,,,0,70,70,70,,,3,0.18499487500230316,real_4353,001,2025-11-24_10-26-02,
138,AF14ANS.JPG,modgang_compressed.wav,negative,babble_84.wav,varme_reversed.wav,skønhed_reversed.wav,,,,,0,71,71,71,,,1,0.3155469159974018,real_4353,001,2025-11-24_10-26-02,
195,AM14ANS.JPG,fjollet_compressed.wav,positive,babble_79.wav,drukne_reversed.wav,skammel_reversed.wav,,,,,0,72,72,72,,,2,0.3012862499963376,real_4353,001,2025-11-24_10-26-02,
2,AM16NES.JPG,SILENCE,no-prime,babble_3.wav,marked_reversed.wav,statue_reversed.wav,,,,,0,73,73,73,,,2,0.3256669170004898,real_4353,001,2025-11-24_10-26-02,
128,AF15ANS.JPG,kysse_compressed.wav,positive,babble_5.wav,beskidt_reversed.wav,gave_reversed.wav,,,,,0,74,74,74,,,3,0.20208495800034143,real_4353,001,2025-11-24_10-26-02,
170,AM34NES.JPG,bryllup_compressed.wav,positive,babble_9.wav,leder_reversed.wav,skønhed_reversed.wav,,,,,0,75,75,75,,,3,0.9920572910050396,real_4353,001,2025-11-24_10-26-02,
59,AM23ANS.JPG,drukne_compressed.wav,negative,babble_65.wav,blomstre_reversed.wav,taber_reversed.wav,,,,,0,76,76,76,,,3,1.6846723330017994,real_4353,001,2025-11-24_10-26-02,
66,AM25NES.JPG,jubel_compressed.wav,positive,babble_10.wav,himlen_reversed.wav,modgang_reversed.wav,,,,,0,77,77,77,,,5,1.3816460000016377,real_4353,001,2025-11-24_10-26-02,
116,AM29HAS.JPG,slave_compressed.wav,negative,babble_65.wav,opstemt_reversed.wav,violin_reversed.wav,,,,,0,78,78,78,,,8,0.2827655000000959,real_4353,001,2025-11-24_10-26-02,
174,AM23HAS.JPG,museum_compressed.wav,neutral,babble_32.wav,fase_reversed.wav,latter_reversed.wav,,,,,0,79,79,79,,,7,0.5269152910041157,real_4353,001,2025-11-24_10-26-02,
57,AM11NES.JPG,sygdom_compressed.wav,negative,babble_57.wav,røver_reversed.wav,heldig_reversed.wav,,,,,0,80,80,80,,,3,0.49611358299443964,real_4353,001,2025-11-24_10-26-02,
134,AF03ANS.JPG,engel_compressed.wav,positive,babble_44.wav,sandhed_reversed.wav,viden_reversed.wav,,,,,0,81,81,81,,,2,1.7588022089985316,real_4353,001,2025-11-24_10-26-02,
43,AF14NES.JPG,maling_compressed.wav,neutral,babble_35.wav,ketchup_reversed.wav,redskab_reversed.wav,,,,,0,82,82,82,,,4,0.8026322500008973,real_4353,001,2025-11-24_10-26-02,
75,AM21NES.JPG,djævel_compressed.wav,negative,babble_47.wav,engel_reversed.wav,skade_reversed.wav,,,,,0,83,83,83,,,2,0.9374097079999046,real_4353,001,2025-11-24_10-26-02,
26,AM17HAS.JPG,minder_compressed.wav,positive,babble_32.wav,rabies_reversed.wav,patent_reversed.wav,,,,,0,84,84,84,,,7,0.36392749999504304,real_4353,001,2025-11-24_10-26-02,
67,AF21ANS.JPG,venlig_compressed.wav,positive,babble_60.wav,baby_reversed.wav,blomstre_reversed.wav,,,,,0,85,85,85,,,3,0.8858309159986675,real_4353,001,2025-11-24_10-26-02,
95,AM11HAS.JPG,opstemt_compressed.wav,positive,babble_48.wav,fremskridt_reversed.wav,søsyg_reversed.wav,,,,,0,86,86,86,,,8,0.7110314999954426,real_4353,001,2025-11-24_10-26-02,
53,AM03HAS.JPG,brutal_compressed.wav,negative,babble_24.wav,ugle_reversed.wav,drukne_reversed.wav,,,,,0,87,87,87,,,6,0.398573167003633,real_4353,001,2025-11-24_10-26-02,
46,AM12ANS.JPG,kiste_compressed.wav,negative,babble_63.wav,borddug_reversed.wav,gave_reversed.wav,,,,,0,88,88,88,,,4,2.1312808750008116,real_4353,001,2025-11-24_10-26-02,
136,AM11ANS.JPG,frygtsom_compressed.wav,negative,babble_22.wav,skønhed_reversed.wav,banner_reversed.wav,,,,,0,89,89,89,,,3,0.4477031659989734,real_4353,001,2025-11-24_10-26-02,
107,AM22ANS.JPG,cirkus_compressed.wav,positive,babble_38.wav,ledning_reversed.wav,mave_reversed.wav,,,,,0,90,90,90,,,2,0.8079644160025055,real_4353,001,2025-11-24_10-26-02,
47,AF26ANS.JPG,SILENCE,no-prime,babble_21.wav,dollar_reversed.wav,slagtning_reversed.wav,,,,,0,91,91,91,,,2,0.5043596670002444,real_4353,001,2025-11-24_10-26-02,
96,AM07HAS.JPG,poesi_compressed.wav,neutral,babble_41.wav,sikker_reversed.wav,bifald_reversed.wav,,,,,0,92,92,92,,,7,1.1433536659969832,real_4353,001,2025-11-24_10-26-02,
7,AF16HAS.JPG,sollys_compressed.wav,positive,babble_34.wav,skyldig_reversed.wav,koldbrand_reversed.wav,,,,,0,93,93,93,,,8,0.15938158399512758,real_4353,001,2025-11-24_10-26-02,
103,AF03HAS.JPG,SILENCE,no-prime,babble_41.wav,patent_reversed.wav,vindue_reversed.wav,,,,,0,94,94,94,,,7,0.06982241600053385,real_4353,001,2025-11-24_10-26-02,
140,AM19HAS.JPG,røver_compressed.wav,negative,babble_48.wav,dæmon_reversed.wav,ønske_reversed.wav,,,,,0,95,95,95,,,7,0.5531354580016341,real_4353,001,2025-11-24_10-26-02,
41,AM30HAS.JPG,ørken_compressed.wav,negative,babble_76.wav,engel_reversed.wav,regnbue_reversed.wav,,,,,0,96,96,96,,,6,0.0009672500018496066,real_4353,001,2025-11-24_10-26-02,
163,AM02HAS.JPG,brænde_compressed.wav,negative,babble_59.wav,feber_reversed.wav,viden_reversed.wav,,,,,0,97,97,97,,,3,0.4642983750018175,real_4353,001,2025-11-24_10-26-02,
13,AF19HAS.JPG,illoyal_compressed.wav,negative,babble_86.wav,humor_reversed.wav,skammel_reversed.wav,,,,,0,98,98,98,,,7,0.14187237500300398,real_4353,001,2025-11-24_10-26-02,
97,AF22HAS.JPG,opstemt_compressed.wav,positive,babble_48.wav,slagtning_reversed.wav,vindue_reversed.wav,,,,,0,99,99,99,,,7,0.5120911660051206,real_4353,001,2025-11-24_10-26-02,
196,AF01HAS.JPG,røver_compressed.wav,negative,babble_22.wav,slagtning_reversed.wav,sandhed_reversed.wav,,,,,0,100,100,100,,,9,0.8825073749976582,real_4353,001,2025-11-24_10-26-02,
112,AF17HAS.JPG,albue_compressed.wav,neutral,babble_60.wav,rabies_reversed.wav,albue_reversed.wav,,,,,0,101,101,101,,,8,1.1337561670006835,real_4353,001,2025-11-24_10-26-02,
104,AM05HAS.JPG,kæle_compressed.wav,positive,babble_11.wav,brænde_reversed.wav,statue_reversed.wav,,,,,0,102,102,102,,,8,0.10468199999741046,real_4353,001,2025-11-24_10-26-02,
30,AM29ANS.JPG,spise_compressed.wav,positive,babble_72.wav,hage_reversed.wav,diamant_reversed.wav,,,,,0,103,103,103,,,2,0.5985575829981826,real_4353,001,2025-11-24_10-26-02,
63,AM31ANS.JPG,stjerne_compressed.wav,positive,babble_83.wav,vandfald_reversed.wav,vindue_reversed.wav,,,,,0,104,104,104,,,3,1.4427997919992777,real_4353,001,2025-11-24_10-26-02,
186,AF06HAS.JPG,skammel_compressed.wav,neutral,babble_16.wav,redskab_reversed.wav,gidsel_reversed.wav,,,,,0,105,105,105,,,7,0.19900358300219523,real_4353,001,2025-11-24_10-26-02,
119,AF28ANS.JPG,SILENCE,no-prime,babble_22.wav,trussel_reversed.wav,drukne_reversed.wav,,,,,0,106,106,106,,,3,0.4509646660008002,real_4353,001,2025-11-24_10-26-02,
106,AF23HAS.JPG,oprør_compressed.wav,negative,babble_3.wav,affald_reversed.wav,ketchup_reversed.wav,,,,,0,107,107,107,,,7,3.7341600420040777,real_4353,001,2025-11-24_10-26-02,
20,AM30NES.JPG,voldsom_compressed.wav,negative,babble_29.wav,ferie_reversed.wav,engel_reversed.wav,,,,,0,108,108,108,,,2,1.0398574159989948,real_4353,001,2025-11-24_10-26-02,
135,AF07ANS.JPG,smerte_compressed.wav,negative,babble_18.wav,leder_reversed.wav,plakat_reversed.wav,,,,,0,109,109,109,,,2,0.26209545799792977,real_4353,001,2025-11-24_10-26-02,
123,AF34ANS.JPG,hage_compressed.wav,neutral,babble_20.wav,mester_reversed.wav,pervers_reversed.wav,,,,,0,110,110,110,,,4,0.30250087499734946,real_4353,001,2025-11-24_10-26-02,
171,AF06NES.JPG,jubel_compressed.wav,positive,babble_57.wav,bombe_reversed.wav,pervers_reversed.wav,,,,,0,111,111,111,,,6,2.087235792001593,real_4353,001,2025-11-24_10-26-02,
54,AM27NES.JPG,ledning_compressed.wav,neutral,babble_78.wav,skyldig_reversed.wav,skønhed_reversed.wav,,,,,0,112,112,112,,,4,0.3448873339948477,real_4353,001,2025-11-24_10-26-02,
197,AM12NES.JPG,SILENCE,no-prime,babble_40.wav,blodig_reversed.wav,søsyg_reversed.wav,,,,,0,113,113,113,,,5,0.5658435829973314,real_4353,001,2025-11-24_10-26-02,
38,AM16ANS.JPG,boble_compressed.wav,neutral,babble_33.wav,koldbrand_reversed.wav,vandfald_reversed.wav,,,,,0,114,114,114,,,2,0.11399649999657413,real_4353,001,2025-11-24_10-26-02,
159,AF04ANS.JPG,viden_compressed.wav,positive,babble_13.wav,smerte_reversed.wav,sindssyg_reversed.wav,,,,,0,115,115,115,,,2,0.8306541660058429,real_4353,001,2025-11-24_10-26-02,
121,AF35NES.JPG,SILENCE,no-prime,babble_92.wav,fjollet_reversed.wav,museum_reversed.wav,,,,,0,116,116,116,,,4,0.809472499997355,real_4353,001,2025-11-24_10-26-02,
79,AF15NES.JPG,forår_compressed.wav,positive,babble_37.wav,jubel_reversed.wav,plakat_reversed.wav,,,,,0,117,117,117,,,2,0.0643517909993534,real_4353,001,2025-11-24_10-26-02,
87,AF05HAS.JPG,sæde_compressed.wav,neutral,babble_67.wav,ankel_reversed.wav,diamant_reversed.wav,,,,,0,118,118,118,,,7,0.5610990409986698,real_4353,001,2025-11-24_10-26-02,
118,AM29NES.JPG,redning_compressed.wav,positive,babble_80.wav,tortur_reversed.wav,skade_reversed.wav,,,,,0,119,119,119,,,3,0.7430769170023268,real_4353,001,2025-11-24_10-26-02,
187,AF33NES.JPG,engel_compressed.wav,positive,babble_8.wav,vandal_reversed.wav,ferie_reversed.wav,,,,,0,120,120,120,,,4,0.48377254200022435,real_4353,001,2025-11-24_10-26-02,
109,AF32HAS.JPG,SILENCE,no-prime,babble_54.wav,hader_reversed.wav,kærtegn_reversed.wav,,,,,0,121,121,121,,,9,0.2941895409967401,real_4353,001,2025-11-24_10-26-02,
81,AM34HAS.JPG,affald_compressed.wav,negative,babble_37.wav,pervers_reversed.wav,kærtegn_reversed.wav,,,,,0,122,122,122,,,8,0.14406812499510124,real_4353,001,2025-11-24_10-26-02,
83,AM10HAS.JPG,jubel_compressed.wav,positive,babble_1.wav,kærtegn_reversed.wav,giftig_reversed.wav,,,,,0,123,123,123,,,7,0.16894800000591204,real_4353,001,2025-11-24_10-26-02,
185,AM28NES.JPG,udskud_compressed.wav,negative,babble_45.wav,nedbrud_reversed.wav,vinde_reversed.wav,,,,,0,124,124,124,,,3,0.5983580839965725,real_4353,001,2025-11-24_10-26-02,
113,AM25ANS.JPG,rædsel_compressed.wav,negative,babble_61.wav,hjerte_reversed.wav,skammel_reversed.wav,,,,,0,125,125,125,,,2,0.025008249998791143,real_4353,001,2025-11-24_10-26-02,
165,AF30NES.JPG,statue_compressed.wav,neutral,babble_87.wav,marked_reversed.wav,vinde_reversed.wav,,,,,0,126,126,126,,,3,0.8158201670012204,real_4353,001,2025-11-24_10-26-02,
124,AF25HAS.JPG,blomstre_compressed.wav,positive,babble_19.wav,ledning_reversed.wav,heldig_reversed.wav,,,,,0,127,127,127,,,9,0.42303087500476977,real_4353,001,2025-11-24_10-26-02,
82,AM10NES.JPG,rabies_compressed.wav,negative,babble_86.wav,marked_reversed.wav,respekt_reversed.wav,,,,,0,128,128,128,,,4,0.4271114589937497,real_4353,001,2025-11-24_10-26-02,
101,AF16ANS.JPG,brænde_compressed.wav,negative,babble_65.wav,kugle_reversed.wav,nonne_reversed.wav,,,,,0,129,129,129,,,1,0.3387716669967631,real_4353,001,2025-11-24_10-26-02,
91,AM19NES.JPG,baby_compressed.wav,positive,babble_43.wav,redskab_reversed.wav,måned_reversed.wav,,,,,0,130,130,130,,,4,0.5606641660051537,real_4353,001,2025-11-24_10-26-02,
15,AM03NES.JPG,bryllup_compressed.wav,positive,babble_36.wav,putte_reversed.wav,voldtægt_reversed.wav,,,,,0,131,131,131,,,4,0.35896929199952865,real_4353,001,2025-11-24_10-26-02,
156,AM13NES.JPG,SILENCE,no-prime,babble_10.wav,kujon_reversed.wav,ferie_reversed.wav,,,,,0,132,132,132,,,4,0.39316162500472274,real_4353,001,2025-11-24_10-26-02,
34,AM01ANS.JPG,hjerte_compressed.wav,positive,babble_51.wav,metal_reversed.wav,slave_reversed.wav,,,,,0,133,133,133,,,1,0.24761225000111153,real_4353,001,2025-11-24_10-26-02,
164,AF30ANS.JPG,fjollet_compressed.wav,positive,babble_68.wav,banner_reversed.wav,sygdom_reversed.wav,,,,,0,134,134,134,,,2,0.11662874999456108,real_4353,001,2025-11-24_10-26-02,
86,AM14HAS.JPG,tortur_compressed.wav,negative,babble_77.wav,mester_reversed.wav,himlen_reversed.wav,,,,,0,135,135,135,,,7,0.037506583001231775,real_4353,001,2025-11-24_10-26-02,
74,AM06NES.JPG,taxa_compressed.wav,neutral,babble_30.wav,forfald_reversed.wav,redning_reversed.wav,,,,,0,136,136,136,,,4,0.285205208005209,real_4353,001,2025-11-24_10-26-02,
143,AF11NES.JPG,penge_compressed.wav,positive,babble_15.wav,dæmpet_reversed.wav,kæle_reversed.wav,,,,,0,137,137,137,,,4,1.7043212079952355,real_4353,001,2025-11-24_10-26-02,
152,AF25NES.JPG,baby_compressed.wav,positive,babble_91.wav,misbrug_reversed.wav,succes_reversed.wav,,,,,0,138,138,138,,,3,0.4913594169993303,real_4353,001,2025-11-24_10-26-02,
88,AF24ANS.JPG,frihed_compressed.wav,positive,babble_90.wav,opstemt_reversed.wav,dæmpet_reversed.wav,,,,,0,139,139,139,,,1,0.6273532920022262,real_4353,001,2025-11-24_10-26-02,
199,AM30ANS.JPG,ledning_compressed.wav,neutral,babble_91.wav,gratis_reversed.wav,kujon_reversed.wav,,,,,0,140,140,140,,,1,0.44028758400236256,real_4353,001,2025-11-24_10-26-02,
120,AM08NES.JPG,enhed_compressed.wav,neutral,babble_66.wav,kæle_reversed.wav,natur_reversed.wav,,,,,0,141,141,141,,,3,0.7898765830032062,real_4353,001,2025-11-24_10-26-02,
158,AM28HAS.JPG,metal_compressed.wav,neutral,babble_77.wav,lækker_reversed.wav,beskidt_reversed.wav,,,,,0,142,142,142,,,6,0.2836502499994822,real_4353,001,2025-11-24_10-26-02,
132,AM02ANS.JPG,SILENCE,no-prime,babble_96.wav,affald_reversed.wav,selvmord_reversed.wav,,,,,0,143,143,143,,,1,0.2618564169970341,real_4353,001,2025-11-24_10-26-02,
40,AF13NES.JPG,SILENCE,no-prime,babble_0.wav,lærer_reversed.wav,metal_reversed.wav,,,,,0,144,144,144,,,2,0.2600000410020584,real_4353,001,2025-11-24_10-26-02,
144,AF31NES.JPG,accept_compressed.wav,positive,babble_78.wav,pjece_reversed.wav,himmel_reversed.wav,,,,,0,145,145,145,,,2,0.11305324999557342,real_4353,001,2025-11-24_10-26-02,
145,AF08ANS.JPG,SILENCE,no-prime,babble_60.wav,grusom_reversed.wav,opstemt_reversed.wav,,,,,0,146,146,146,,,3,0.30048454200004926,real_4353,001,2025-11-24_10-26-02,
70,AF12NES.JPG,mester_compressed.wav,positive,babble_92.wav,lærer_reversed.wav,passion_reversed.wav,,,,,0,147,147,147,,,4,0.20166391700331587,real_4353,001,2025-11-24_10-26-02,
189,AF13HAS.JPG,sæde_compressed.wav,neutral,babble_53.wav,vindue_reversed.wav,blodig_reversed.wav,,,,,0,148,148,148,,,8,0.21109124999929918,real_4353,001,2025-11-24_10-26-02,
23,AM24HAS.JPG,selvmord_compressed.wav,negative,babble_44.wav,taxa_reversed.wav,skuffe_reversed.wav,,,,,0,149,149,149,,,8,0.6661960000055842,real_4353,001,2025-11-24_10-26-02,
184,AM24ANS.JPG,SILENCE,no-prime,babble_83.wav,feber_reversed.wav,fængsel_reversed.wav,,,,,0,150,150,150,,,1,0.4980622500006575,real_4353,001,2025-11-24_10-26-02,
36,AF23ANS.JPG,lækker_compressed.wav,positive,babble_75.wav,oprør_reversed.wav,marked_reversed.wav,,,,,0,151,151,151,,,2,0.4709299589958391,real_4353,001,2025-11-24_10-26-02,
125,AM32NES.JPG,kæle_compressed.wav,positive,babble_53.wav,fjollet_reversed.wav,putte_reversed.wav,,,,,0,152,152,152,,,3,0.3916674590000184,real_4353,001,2025-11-24_10-26-02,
11,AF07HAS.JPG,selvmord_compressed.wav,negative,babble_86.wav,dæmon_reversed.wav,syndig_reversed.wav,,,,,0,153,153,153,,,8,1.728733290998207,real_4353,001,2025-11-24_10-26-02,
179,AM09ANS.JPG,avis_compressed.wav,neutral,babble_78.wav,rabies_reversed.wav,vandal_reversed.wav,,,,,0,154,154,154,,,1,0.12903874999756226,real_4353,001,2025-11-24_10-26-02,
153,AM18NES.JPG,ketchup_compressed.wav,neutral,babble_99.wav,dæmpet_reversed.wav,pude_reversed.wav,,,,,0,155,155,155,,,4,0.8931164169989643,real_4353,001,2025-11-24_10-26-02,
5,AF35ANS.JPG,luksus_compressed.wav,positive,babble_93.wav,tumor_reversed.wav,kugle_reversed.wav,,,,,0,156,156,156,,,2,0.3399526249995688,real_4353,001,2025-11-24_10-26-02,
35,AF24NES.JPG,fremskridt_compressed.wav,positive,babble_3.wav,krise_reversed.wav,fremskridt_reversed.wav,,,,,0,157,157,157,,,4,0.28682758300419664,real_4353,001,2025-11-24_10-26-02,
175,AM19ANS.JPG,oprør_compressed.wav,negative,babble_5.wav,traume_reversed.wav,sollys_reversed.wav,,,,,0,158,158,158,,,1,0.23545125000237022,real_4353,001,2025-11-24_10-26-02,
178,AM23NES.JPG,mave_compressed.wav,neutral,babble_25.wav,vandfald_reversed.wav,forfald_reversed.wav,,,,,0,159,159,159,,,4,0.28974524999648565,real_4353,001,2025-11-24_10-26-02,
168,AF22NES.JPG,fremskridt_compressed.wav,positive,babble_50.wav,albue_reversed.wav,sandhed_reversed.wav,,,,,0,160,160,160,,,4,0.15364383300038753,real_4353,001,2025-11-24_10-26-02,
89,AF02HAS.JPG,afskyr_compressed.wav,negative,babble_72.wav,skuffe_reversed.wav,lampe_reversed.wav,,,,,0,161,161,161,,,8,1.2089315420016646,real_4353,001,2025-11-24_10-26-02,
183,AF18ANS.JPG,gidsel_compressed.wav,negative,babble_64.wav,rotte_reversed.wav,vindue_reversed.wav,,,,,0,162,162,162,,,4,0.509905708997394,real_4353,001,2025-11-24_10-26-02,
55,AM22NES.JPG,jubel_compressed.wav,positive,babble_34.wav,vindue_reversed.wav,fase_reversed.wav,,,,,0,163,163,163,,,1,0.2682142080011545,real_4353,001,2025-11-24_10-26-02,
28,AF12HAS.JPG,bange_compressed.wav,negative,babble_64.wav,lyse_reversed.wav,sæde_reversed.wav,,,,,0,164,164,164,,,3,0.5101173750008456,real_4353,001,2025-11-24_10-26-02,
110,AF15HAS.JPG,utro_compressed.wav,negative,babble_71.wav,diamant_reversed.wav,offer_reversed.wav,,,,,0,165,165,165,,,6,0.4532000409963075,real_4353,001,2025-11-24_10-26-02,
98,AM25HAS.JPG,gade_compressed.wav,neutral,babble_28.wav,avis_reversed.wav,fiasko_reversed.wav,,,,,0,166,166,166,,,3,1.2088669579970883,real_4353,001,2025-11-24_10-26-02,
3,AF09NES.JPG,sexet_compressed.wav,positive,babble_83.wav,sæde_reversed.wav,stjerne_reversed.wav,,,,,0,167,167,167,,,5,0.14854325000487734,real_4353,001,2025-11-24_10-26-02,
51,AF19ANS.JPG,nedbrud_compressed.wav,negative,babble_48.wav,giftig_reversed.wav,fase_reversed.wav,,,,,0,168,168,168,,,3,0.46203241699549835,real_4353,001,2025-11-24_10-26-02,
148,AF31HAS.JPG,respekt_compressed.wav,positive,babble_1.wav,opstemt_reversed.wav,sollys_reversed.wav,,,,,0,169,169,169,,,4,0.12647179199848324,real_4353,001,2025-11-24_10-26-02,
193,AM06HAS.JPG,engel_compressed.wav,positive,babble_47.wav,maling_reversed.wav,redskab_reversed.wav,,,,,0,170,170,170,,,6,0.8439753749989904,real_4353,001,2025-11-24_10-26-02,
50,AF25ANS.JPG,brænde_compressed.wav,negative,babble_34.wav,sandhed_reversed.wav,albue_reversed.wav,,,,,0,171,171,171,,,1,1.3053102499980014,real_4353,001,2025-11-24_10-26-02,
33,AF28HAS.JPG,trofæ_compressed.wav,positive,babble_52.wav,gave_reversed.wav,skade_reversed.wav,,,,,0,172,172,172,,,8,0.27656345900322776,real_4353,001,2025-11-24_10-26-02,
149,AF35HAS.JPG,glæde_compressed.wav,positive,babble_59.wav,dollar_reversed.wav,glæde_reversed.wav,,,,,0,173,173,173,,,9,0.36854233399935765,real_4353,001,2025-11-24_10-26-02,
108,AM21HAS.JPG,offer_compressed.wav,negative,babble_78.wav,affald_reversed.wav,fjendtlig_reversed.wav,,,,,0,174,174,174,,,9,0.9364885839968338,real_4353,001,2025-11-24_10-26-02,
172,AM31NES.JPG,smerte_compressed.wav,negative,babble_15.wav,luksus_reversed.wav,cirkel_reversed.wav,,,,,0,175,175,175,,,2,1.362807666999288,real_4353,001,2025-11-24_10-26-02,
182,AF12ANS.JPG,sexet_compressed.wav,positive,babble_72.wav,mave_reversed.wav,taber_reversed.wav,,,,,0,176,176,176,,,2,0.5120366670016665,real_4353,001,2025-11-24_10-26-02,
77,AF33HAS.JPG,SILENCE,no-prime,babble_96.wav,voldtægt_reversed.wav,vandal_reversed.wav,,,,,0,177,177,177,,,8,0.27514637500280514,real_4353,001,2025-11-24_10-26-02,
14,AF21HAS.JPG,SILENCE,no-prime,babble_86.wav,flirte_reversed.wav,taber_reversed.wav,,,,,0,178,178,178,,,8,0.5035470829971018,real_4353,001,2025-11-24_10-26-02,
146,AF10HAS.JPG,SILENCE,no-prime,babble_74.wav,cirkel_reversed.wav,fiasko_reversed.wav,,,,,0,179,179,179,,,7,3.2876870420004707,real_4353,001,2025-11-24_10-26-02,
105,AM31HAS.JPG,SILENCE,no-prime,babble_29.wav,ferie_reversed.wav,kande_reversed.wav,,,,,0,180,180,180,,,6,0.8951957919998677,real_4353,001,2025-11-24_10-26-02,
176,AM01NES.JPG,blodig_compressed.wav,negative,babble_13.wav,himmel_reversed.wav,beskidt_reversed.wav,,,,,0,181,181,181,,,2,0.19300079200183973,real_4353,001,2025-11-24_10-26-02,
102,AM05ANS.JPG,hånlig_compressed.wav,negative,babble_61.wav,ferie_reversed.wav,koldbrand_reversed.wav,,,,,0,182,182,182,,,2,1.3480934580002213,real_4353,001,2025-11-24_10-26-02,
94,AM15ANS.JPG,tortur_compressed.wav,negative,babble_84.wav,fremskridt_reversed.wav,sejre_reversed.wav,,,,,0,183,183,183,,,1,0.2924308329966152,real_4353,001,2025-11-24_10-26-02,
73,AF18HAS.JPG,røver_compressed.wav,negative,babble_53.wav,pude_reversed.wav,kontor_reversed.wav,,,,,0,184,184,184,,,9,0.1564537080048467,real_4353,001,2025-11-24_10-26-02,
147,AM28ANS.JPG,forpint_compressed.wav,negative,babble_17.wav,væmmes_reversed.wav,poesi_reversed.wav,,,,,0,185,185,185,,,1,0.05135979199985741,real_4353,001,2025-11-24_10-26-02,
92,AF07NES.JPG,engel_compressed.wav,positive,babble_81.wav,museum_reversed.wav,pjece_reversed.wav,,,,,0,186,186,186,,,4,0.24227458300447324,real_4353,001,2025-11-24_10-26-02,
127,AF20NES.JPG,SILENCE,no-prime,babble_32.wav,skammel_reversed.wav,kærtegn_reversed.wav,,,,,0,187,187,187,,,6,0.374050124999485,real_4353,001,2025-11-24_10-26-02,
32,AM27HAS.JPG,himlen_compressed.wav,positive,babble_70.wav,smerte_reversed.wav,salat_reversed.wav,,,,,0,188,188,188,,,6,1.3634129169950029,real_4353,001,2025-11-24_10-26-02,
115,AF11HAS.JPG,rigdom_compressed.wav,positive,babble_55.wav,knude_reversed.wav,taxa_reversed.wav,,,,,0,189,189,189,,,8,0.4052022920004674,real_4353,001,2025-11-24_10-26-02,
42,AM12HAS.JPG,forår_compressed.wav,positive,babble_68.wav,voldtægt_reversed.wav,fængsel_reversed.wav,,,,,0,190,190,190,,,8,1.794868208002299,real_4353,001,2025-11-24_10-26-02,
10,AF23NES.JPG,pjece_compressed.wav,neutral,babble_27.wav,kæle_reversed.wav,violin_reversed.wav,,,,,0,191,191,191,,,3,0.9500580000021728,real_4353,001,2025-11-24_10-26-02,
4,AM02NES.JPG,intim_compressed.wav,positive,babble_97.wav,skade_reversed.wav,hjerte_reversed.wav,,,,,0,192,192,192,,,4,0.5769120830009342,real_4353,001,2025-11-24_10-26-02,
122,AF03NES.JPG,traume_compressed.wav,negative,babble_44.wav,violin_reversed.wav,sæde_reversed.wav,,,,,0,193,193,193,,,2,0.1482907499957946,real_4353,001,2025-11-24_10-26-02,
