signal_type,compression_level,prime_file,correct_word,babbling_file,mask1_file,mask2_file,practice.thisRepN,practice.thisTrialN,practice.thisN,practice.thisIndex,main.thisRepN,main.thisTrialN,main.thisN,main.thisIndex,thisRow.t,notes,response_key,rt,trial_outcome,babble_duration,Participant ID,Session,date,
present,0.5,flirte_compressed.wav,flirte,babble_83.wav,vinde_reversed.wav,kærtegn_reversed.wav,0,0,0,0,0,-1,-1,0,,,z,1.8179969000048004,Miss,0.55359424419236,9123,001,2025-12-06_17-38-12,
present,0.6,fase_compressed.wav,fase,babble_38.wav,borddug_reversed.wav,røver_reversed.wav,0,1,1,1,0,-1,-1,0,,,z,1.4846466000308283,Miss,0.9958857154727635,9123,001,2025-12-06_17-38-12,
absent,0.3,SILENCE,NA,babble_6.wav,viden_reversed.wav,latter_reversed.wav,0,2,2,2,0,-1,-1,0,,,z,1.9129366999841295,Correct Rejection,0.6509822719226263,9123,001,2025-12-06_17-38-12,
present,0.2,afskyr_compressed.wav,afskyr,babble_45.wav,luksus_reversed.wav,grusom_reversed.wav,0,3,3,3,0,-1,-1,0,,,m,1.0589806999778375,Hit,1.0108286599810778,9123,001,2025-12-06_17-38-12,
absent,0.5,SILENCE,NA,babble_51.wav,søsyg_reversed.wav,gaffel_reversed.wav,0,4,4,4,0,-1,-1,0,,,z,2.099930799973663,Correct Rejection,1.2516826305658806,9123,001,2025-12-06_17-38-12,
present,0.7,ledning_compressed.wav,ledning,babble_84.wav,fedme_reversed.wav,salat_reversed.wav,0,5,5,5,0,-1,-1,0,,,z,1.6163539999979548,Miss,1.1383084043844875,9123,001,2025-12-06_17-38-12,
absent,0.7,SILENCE,NA,babble_19.wav,sejre_reversed.wav,drukne_reversed.wav,0,6,6,6,0,-1,-1,0,,,z,1.1826372999930754,Correct Rejection,0.8147093178271794,9123,001,2025-12-06_17-38-12,
present,0.4,venlig_compressed.wav,venlig,babble_13.wav,fjendtlig_reversed.wav,humor_reversed.wav,0,7,7,7,0,-1,-1,0,,,z,1.252869300020393,Miss,0.658635577410644,9123,001,2025-12-06_17-38-12,
present,0.1,udskud_compressed.wav,udskud,babble_8.wav,spise_reversed.wav,baby_reversed.wav,0,8,8,8,0,-1,-1,0,,,z,1.7462068000459112,Miss,1.430158756337171,9123,001,2025-12-06_17-38-12,
absent,0.1,SILENCE,NA,babble_12.wav,viden_reversed.wav,rotte_reversed.wav,0,9,9,9,0,-1,-1,0,,,z,1.346374000015203,Correct Rejection,0.5438064402882209,9123,001,2025-12-06_17-38-12,
absent,0.6,SILENCE,NA,babble_58.wav,opstemt_reversed.wav,vinde_reversed.wav,0,10,10,10,0,-1,-1,0,,,z,2.0878122999565676,Correct Rejection,0.6408024609771629,9123,001,2025-12-06_17-38-12,
absent,0.4,SILENCE,NA,babble_15.wav,hånlig_reversed.wav,bygning_reversed.wav,0,11,11,11,0,-1,-1,0,,,z,1.5266300999792293,Correct Rejection,0.5548671427877673,9123,001,2025-12-06_17-38-12,
absent,0.2,SILENCE,NA,babble_75.wav,skuffe_reversed.wav,nøgle_reversed.wav,0,12,12,12,0,-1,-1,0,,,z,1.7613902000011876,Correct Rejection,1.2167648695360265,9123,001,2025-12-06_17-38-12,
present,0.3,ærlig_compressed.wav,ærlig,babble_25.wav,himmel_reversed.wav,dæmon_reversed.wav,0,13,13,13,0,-1,-1,0,,,m,1.064887100015767,Hit,1.4807753563479915,9123,001,2025-12-06_17-38-12,
present,0.3,glæde_compressed.wav,glæde,babble_96.wav,taber_reversed.wav,sæde_reversed.wav,,,,,0,0,0,0,,,m,1.0200972000020556,Hit,0.5580413373379691,9123,001,2025-12-06_17-38-12,
present,0.5,minder_compressed.wav,minder,babble_9.wav,voldtægt_reversed.wav,ensom_reversed.wav,,,,,0,1,1,1,,,m,1.0288903000182472,Hit,0.8723598822082159,9123,001,2025-12-06_17-38-12,
present,0.3,putte_compressed.wav,putte,babble_71.wav,redning_reversed.wav,hånlig_reversed.wav,,,,,0,2,2,2,,,z,1.6064224000438116,Miss,1.4655071937010717,9123,001,2025-12-06_17-38-12,
present,0.7,trussel_compressed.wav,trussel,babble_67.wav,oprør_reversed.wav,tilfreds_reversed.wav,,,,,0,3,3,3,,,m,0.848284599953331,Hit,0.7031505002427955,9123,001,2025-12-06_17-38-12,
absent,0.4,SILENCE,NA,babble_85.wav,hage_reversed.wav,oprørt_reversed.wav,,,,,0,4,4,4,,,z,1.4428151000174694,Correct Rejection,0.9407626383459018,9123,001,2025-12-06_17-38-12,
absent,0.3,SILENCE,NA,babble_83.wav,redning_reversed.wav,regnbue_reversed.wav,,,,,0,5,5,5,,,z,1.1373621000093408,Correct Rejection,1.109414866008282,9123,001,2025-12-06_17-38-12,
present,0.3,ledning_compressed.wav,ledning,babble_74.wav,voldtægt_reversed.wav,maling_reversed.wav,,,,,0,6,6,6,,,m,0.710392499982845,Hit,0.7263886514606528,9123,001,2025-12-06_17-38-12,
present,0.1,forkert_compressed.wav,forkert,babble_17.wav,ensom_reversed.wav,knude_reversed.wav,,,,,0,7,7,7,,,z,1.4099312999751419,Miss,0.8621606641818989,9123,001,2025-12-06_17-38-12,
absent,0.5,SILENCE,NA,babble_61.wav,finger_reversed.wav,brutal_reversed.wav,,,,,0,8,8,8,,,z,1.6698240999830887,Correct Rejection,0.6080219623534018,9123,001,2025-12-06_17-38-12,
absent,0.2,SILENCE,NA,babble_32.wav,borddug_reversed.wav,kugle_reversed.wav,,,,,0,9,9,9,,,z,1.0950321999844164,Correct Rejection,1.4674053573135253,9123,001,2025-12-06_17-38-12,
present,0.2,koldbrand_compressed.wav,koldbrand,babble_18.wav,taber_reversed.wav,avis_reversed.wav,,,,,0,10,10,10,,,z,1.4305299000116065,Miss,1.3220540442164852,9123,001,2025-12-06_17-38-12,
absent,0.6,SILENCE,NA,babble_37.wav,kujon_reversed.wav,salat_reversed.wav,,,,,0,11,11,11,,,z,1.7756628999486566,Correct Rejection,0.9533357558907037,9123,001,2025-12-06_17-38-12,
absent,0.2,SILENCE,NA,babble_12.wav,utro_reversed.wav,jubel_reversed.wav,,,,,0,12,12,12,,,z,1.3092340000439435,Correct Rejection,0.6461871779811137,9123,001,2025-12-06_17-38-12,
present,0.5,fedme_compressed.wav,fedme,babble_15.wav,forfald_reversed.wav,djævel_reversed.wav,,,,,0,13,13,13,,,z,1.0640814999933355,Miss,0.6123850399068858,9123,001,2025-12-06_17-38-12,
absent,0.4,SILENCE,NA,babble_28.wav,spise_reversed.wav,konkurs_reversed.wav,,,,,0,14,14,14,,,z,1.179458300000988,Correct Rejection,0.5745367291429807,9123,001,2025-12-06_17-38-12,
present,0.5,traume_compressed.wav,traume,babble_34.wav,nøgle_reversed.wav,viden_reversed.wav,,,,,0,15,15,15,,,z,1.443513099977281,Miss,1.3491034828969775,9123,001,2025-12-06_17-38-12,
absent,0.7,SILENCE,NA,babble_79.wav,misbrug_reversed.wav,rådden_reversed.wav,,,,,0,16,16,16,,,z,3.1483756999950856,Correct Rejection,1.4539933620597163,9123,001,2025-12-06_17-38-12,
absent,0.2,SILENCE,NA,babble_10.wav,fængsel_reversed.wav,mave_reversed.wav,,,,,0,17,17,17,,,z,1.621462800016161,Correct Rejection,1.4673551703206829,9123,001,2025-12-06_17-38-12,
absent,0.1,SILENCE,NA,babble_44.wav,skammel_reversed.wav,banner_reversed.wav,,,,,0,18,18,18,,,z,1.7144410000182688,Correct Rejection,0.8143737516668759,9123,001,2025-12-06_17-38-12,
absent,0.7,SILENCE,NA,babble_97.wav,smerte_reversed.wav,fremskridt_reversed.wav,,,,,0,19,19,19,,,z,1.5670109000056982,Correct Rejection,1.2188673808321948,9123,001,2025-12-06_17-38-12,
present,0.1,vandal_compressed.wav,vandal,babble_42.wav,lærer_reversed.wav,nonsens_reversed.wav,,,,,0,20,20,20,,,z,1.8417120999656618,Miss,0.554936205679785,9123,001,2025-12-06_17-38-12,
present,0.6,jubel_compressed.wav,jubel,babble_60.wav,skuffe_reversed.wav,passion_reversed.wav,,,,,0,21,21,21,,,z,1.623992000008002,Miss,0.6643800079473551,9123,001,2025-12-06_17-38-12,
absent,0.1,SILENCE,NA,babble_18.wav,festlig_reversed.wav,rotte_reversed.wav,,,,,0,22,22,22,,,z,1.2747434999910183,Correct Rejection,1.4811781055718425,9123,001,2025-12-06_17-38-12,
present,0.4,fængsel_compressed.wav,fængsel,babble_1.wav,banner_reversed.wav,museum_reversed.wav,,,,,0,23,23,23,,,z,1.3601171000045724,Miss,0.5209586543276662,9123,001,2025-12-06_17-38-12,
absent,0.4,SILENCE,NA,babble_77.wav,bombe_reversed.wav,flirte_reversed.wav,,,,,0,24,24,24,,,z,1.3134271000162698,Correct Rejection,1.1228108515427544,9123,001,2025-12-06_17-38-12,
present,0.1,ugle_compressed.wav,ugle,babble_43.wav,maling_reversed.wav,varme_reversed.wav,,,,,0,25,25,25,,,z,1.2680916000390425,Miss,0.6971792906844094,9123,001,2025-12-06_17-38-12,
absent,0.7,SILENCE,NA,babble_14.wav,offer_reversed.wav,giftig_reversed.wav,,,,,0,26,26,26,,,m,2.5839019999839365,False Alarm,1.1640095371149144,9123,001,2025-12-06_17-38-12,
absent,0.6,SILENCE,NA,babble_8.wav,ledning_reversed.wav,sandhed_reversed.wav,,,,,0,27,27,27,,,z,1.1760520999669097,Correct Rejection,1.202504878651523,9123,001,2025-12-06_17-38-12,
absent,0.2,SILENCE,NA,babble_40.wav,oprørt_reversed.wav,skyldig_reversed.wav,,,,,0,28,28,28,,,z,1.8960067000007257,Correct Rejection,1.1290149322385308,9123,001,2025-12-06_17-38-12,
present,0.6,penge_compressed.wav,penge,babble_3.wav,frygtsom_reversed.wav,sikker_reversed.wav,,,,,0,29,29,29,,,m,1.2052662000060081,Hit,1.3232667877078508,9123,001,2025-12-06_17-38-12,
absent,0.4,SILENCE,NA,babble_30.wav,pude_reversed.wav,sikker_reversed.wav,,,,,0,30,30,30,,,z,1.0727977000060491,Correct Rejection,0.6780718867658414,9123,001,2025-12-06_17-38-12,
absent,0.1,SILENCE,NA,babble_17.wav,hader_reversed.wav,konge_reversed.wav,,,,,0,31,31,31,,,z,1.0279014999978244,Correct Rejection,1.1057413504884677,9123,001,2025-12-06_17-38-12,
present,0.2,intim_compressed.wav,intim,babble_57.wav,taxa_reversed.wav,lækker_reversed.wav,,,,,0,32,32,32,,,z,1.3446817999938503,Miss,0.88447485986975,9123,001,2025-12-06_17-38-12,
absent,0.5,SILENCE,NA,babble_45.wav,sollys_reversed.wav,luksus_reversed.wav,,,,,0,33,33,33,,,z,1.7898295000195503,Correct Rejection,0.9168292787664399,9123,001,2025-12-06_17-38-12,
present,0.1,taber_compressed.wav,taber,babble_18.wav,gaffel_reversed.wav,ørken_reversed.wav,,,,,0,34,34,34,,,m,1.3541884000296704,Hit,0.9321116939120148,9123,001,2025-12-06_17-38-12,
present,0.3,kujon_compressed.wav,kujon,babble_56.wav,affald_reversed.wav,metal_reversed.wav,,,,,0,35,35,35,,,m,1.3122086999937892,Hit,0.6881748199085927,9123,001,2025-12-06_17-38-12,
absent,0.6,SILENCE,NA,babble_63.wav,utro_reversed.wav,poesi_reversed.wav,,,,,0,36,36,36,,,z,1.0987584000104107,Correct Rejection,0.8782997310103774,9123,001,2025-12-06_17-38-12,
present,0.2,heldig_compressed.wav,heldig,babble_50.wav,slagtning_reversed.wav,rabies_reversed.wav,,,,,0,37,37,37,,,z,1.2400423999642953,Miss,1.0543163325075553,9123,001,2025-12-06_17-38-12,
present,0.3,ferie_compressed.wav,ferie,babble_14.wav,trofæ_reversed.wav,redskab_reversed.wav,,,,,0,38,38,38,,,z,1.7998066999716684,Miss,1.2681265081467004,9123,001,2025-12-06_17-38-12,
present,0.4,hjerte_compressed.wav,hjerte,babble_59.wav,latter_reversed.wav,hånlig_reversed.wav,,,,,0,39,39,39,,,z,1.310908199986443,Miss,0.8364122445473247,9123,001,2025-12-06_17-38-12,
absent,0.5,SILENCE,NA,babble_59.wav,baby_reversed.wav,kedel_reversed.wav,,,,,0,40,40,40,,,z,1.2692485000006855,Correct Rejection,0.8679806135156147,9123,001,2025-12-06_17-38-12,
present,0.3,skuffe_compressed.wav,skuffe,babble_81.wav,poesi_reversed.wav,fjollet_reversed.wav,,,,,0,41,41,41,,,z,1.636680299998261,Miss,0.5159346421312963,9123,001,2025-12-06_17-38-12,
absent,0.3,SILENCE,NA,babble_65.wav,fjollet_reversed.wav,brutal_reversed.wav,,,,,0,42,42,42,,,z,1.3668256999808364,Correct Rejection,1.4528458875414438,9123,001,2025-12-06_17-38-12,
present,0.4,kæle_compressed.wav,kæle,babble_22.wav,borddug_reversed.wav,borddug_reversed.wav,,,,,0,43,43,43,,,z,1.2761220000102185,Miss,1.1841285997403848,9123,001,2025-12-06_17-38-12,
present,0.6,lærer_compressed.wav,lærer,babble_14.wav,sandhed_reversed.wav,ankel_reversed.wav,,,,,0,44,44,44,,,m,1.1681809999863617,Hit,1.0092648294695237,9123,001,2025-12-06_17-38-12,
present,0.6,cirkus_compressed.wav,cirkus,babble_74.wav,opstemt_reversed.wav,ugle_reversed.wav,,,,,0,45,45,45,,,m,1.3339518999564461,Hit,0.9416810958585957,9123,001,2025-12-06_17-38-12,
present,0.6,bifald_compressed.wav,bifald,babble_38.wav,feber_reversed.wav,respekt_reversed.wav,,,,,0,46,46,46,,,z,1.4264188999659382,Miss,0.6132272692714891,9123,001,2025-12-06_17-38-12,
absent,0.5,SILENCE,NA,babble_7.wav,genstand_reversed.wav,utro_reversed.wav,,,,,0,47,47,47,,,z,0.9930452000116929,Correct Rejection,0.5512665056484285,9123,001,2025-12-06_17-38-12,
absent,0.4,SILENCE,NA,babble_15.wav,regnbue_reversed.wav,tortur_reversed.wav,,,,,0,48,48,48,,,z,0.9867956000380218,Correct Rejection,0.5732483210849189,9123,001,2025-12-06_17-38-12,
absent,0.7,SILENCE,NA,babble_27.wav,blodig_reversed.wav,fiasko_reversed.wav,,,,,0,49,49,49,,,z,0.9700643000542186,Correct Rejection,1.3262027539583943,9123,001,2025-12-06_17-38-12,
absent,0.5,SILENCE,NA,babble_6.wav,maling_reversed.wav,væmmes_reversed.wav,,,,,0,50,50,50,,,z,1.562712500046473,Correct Rejection,0.582149986611887,9123,001,2025-12-06_17-38-12,
present,0.7,fiasko_compressed.wav,fiasko,babble_73.wav,boble_reversed.wav,enhed_reversed.wav,,,,,0,51,51,51,,,z,0.7095697000040673,Miss,0.9588905016985216,9123,001,2025-12-06_17-38-12,
absent,0.6,SILENCE,NA,babble_59.wav,salat_reversed.wav,ørken_reversed.wav,,,,,0,52,52,52,,,z,0.9185160999768414,Correct Rejection,1.1489717553828995,9123,001,2025-12-06_17-38-12,
present,0.5,blodig_compressed.wav,blodig,babble_66.wav,skammel_reversed.wav,banner_reversed.wav,,,,,0,53,53,53,,,z,0.6651426999596879,Miss,1.0599607073639037,9123,001,2025-12-06_17-38-12,
absent,0.3,SILENCE,NA,babble_96.wav,banner_reversed.wav,dæmon_reversed.wav,,,,,0,54,54,54,,,z,0.9239223999902606,Correct Rejection,1.03158302255939,9123,001,2025-12-06_17-38-12,
absent,0.1,SILENCE,NA,babble_57.wav,blomstre_reversed.wav,spise_reversed.wav,,,,,0,55,55,55,,,z,0.9536207999917679,Correct Rejection,0.981445489114763,9123,001,2025-12-06_17-38-12,
present,0.1,fjendtlig_compressed.wav,fjendtlig,babble_2.wav,magisk_reversed.wav,ketchup_reversed.wav,,,,,0,56,56,56,,,m,2.006426600040868,Hit,1.3078502087187276,9123,001,2025-12-06_17-38-12,
present,0.2,dæmpet_compressed.wav,dæmpet,babble_3.wav,kedel_reversed.wav,dæmon_reversed.wav,,,,,0,57,57,57,,,m,1.836207399959676,Hit,0.6732641810294758,9123,001,2025-12-06_17-38-12,
absent,0.2,SILENCE,NA,babble_60.wav,venlig_reversed.wav,ønske_reversed.wav,,,,,0,58,58,58,,,z,1.0252744000172243,Correct Rejection,1.0890563950230105,9123,001,2025-12-06_17-38-12,
absent,0.7,SILENCE,NA,babble_83.wav,tilfreds_reversed.wav,slave_reversed.wav,,,,,0,59,59,59,,,z,1.4770180999767035,Correct Rejection,0.7124522968014495,9123,001,2025-12-06_17-38-12,
present,0.2,frygtsom_compressed.wav,frygtsom,babble_6.wav,røver_reversed.wav,avis_reversed.wav,,,,,0,60,60,60,,,z,1.775798599992413,Miss,0.6218413375848624,9123,001,2025-12-06_17-38-12,
present,0.7,ørken_compressed.wav,ørken,babble_83.wav,genert_reversed.wav,misbrug_reversed.wav,,,,,0,61,61,61,,,z,0.9608396000112407,Miss,0.6416698119672019,9123,001,2025-12-06_17-38-12,
absent,0.3,SILENCE,NA,babble_70.wav,kiste_reversed.wav,grimme_reversed.wav,,,,,0,62,62,62,,,z,1.0009363000281155,Correct Rejection,0.500699129111752,9123,001,2025-12-06_17-38-12,
present,0.4,taxa_compressed.wav,taxa,babble_37.wav,bange_reversed.wav,beskidt_reversed.wav,,,,,0,63,63,63,,,z,1.1681466000154614,Miss,0.5136237572764583,9123,001,2025-12-06_17-38-12,
absent,0.1,SILENCE,NA,babble_13.wav,gratis_reversed.wav,rotte_reversed.wav,,,,,0,64,64,64,,,z,1.0297072000103071,Correct Rejection,1.129948652829496,9123,001,2025-12-06_17-38-12,
present,0.7,lærer_compressed.wav,lærer,babble_56.wav,mester_reversed.wav,maling_reversed.wav,,,,,0,65,65,65,,,z,1.232208699977491,Miss,0.6790830618993153,9123,001,2025-12-06_17-38-12,
present,0.1,baby_compressed.wav,baby,babble_80.wav,pervers_reversed.wav,bifald_reversed.wav,,,,,0,66,66,66,,,z,1.2662845000158995,Miss,1.072323633819238,9123,001,2025-12-06_17-38-12,
present,0.7,gaffel_compressed.wav,gaffel,babble_52.wav,bygning_reversed.wav,fjendtlig_reversed.wav,,,,,0,67,67,67,,,z,1.8507693000137806,Miss,0.65311972822771,9123,001,2025-12-06_17-38-12,
absent,0.7,SILENCE,NA,babble_58.wav,forfald_reversed.wav,konge_reversed.wav,,,,,0,68,68,68,,,z,1.1212368000415154,Correct Rejection,0.9204468461210027,9123,001,2025-12-06_17-38-12,
absent,0.2,SILENCE,NA,babble_86.wav,rådden_reversed.wav,flirte_reversed.wav,,,,,0,69,69,69,,,z,1.1272948000114411,Correct Rejection,0.5991653802955591,9123,001,2025-12-06_17-38-12,
absent,0.6,SILENCE,NA,babble_28.wav,ørken_reversed.wav,sæde_reversed.wav,,,,,0,70,70,70,,,z,1.598157100030221,Correct Rejection,1.216253375996931,9123,001,2025-12-06_17-38-12,
present,0.3,plakat_compressed.wav,plakat,babble_32.wav,oprør_reversed.wav,skuffe_reversed.wav,,,,,0,71,71,71,,,z,1.6652378999860957,Miss,0.9422136130294192,9123,001,2025-12-06_17-38-12,
present,0.5,musik_compressed.wav,musik,babble_12.wav,statue_reversed.wav,smerte_reversed.wav,,,,,0,72,72,72,,,m,0.9151279000216164,Hit,0.669659313745959,9123,001,2025-12-06_17-38-12,
present,0.6,sexet_compressed.wav,sexet,babble_74.wav,bygning_reversed.wav,kujon_reversed.wav,,,,,0,73,73,73,,,z,1.0456208999967203,Miss,1.268909253998301,9123,001,2025-12-06_17-38-12,
present,0.1,illoyal_compressed.wav,illoyal,babble_58.wav,humor_reversed.wav,pervers_reversed.wav,,,,,0,74,74,74,,,m,0.9723086000303738,Hit,1.4858315865452636,9123,001,2025-12-06_17-38-12,
absent,0.7,SILENCE,NA,babble_26.wav,røver_reversed.wav,fremskridt_reversed.wav,,,,,0,75,75,75,,,z,1.2286609999719076,Correct Rejection,0.8129787554039853,9123,001,2025-12-06_17-38-12,
absent,0.5,SILENCE,NA,babble_29.wav,skuffe_reversed.wav,beskidt_reversed.wav,,,,,0,76,76,76,,,z,0.9049028999870643,Correct Rejection,0.9779655139696513,9123,001,2025-12-06_17-38-12,
present,0.7,rådden_compressed.wav,rådden,babble_95.wav,frygtsom_reversed.wav,nonne_reversed.wav,,,,,0,77,77,77,,,z,0.931697299994994,Miss,0.6415974374963266,9123,001,2025-12-06_17-38-12,
absent,0.1,SILENCE,NA,babble_91.wav,drukne_reversed.wav,jubel_reversed.wav,,,,,0,78,78,78,,,z,1.3621074999682605,Correct Rejection,1.1772872373368002,9123,001,2025-12-06_17-38-12,
present,0.7,fremskridt_compressed.wav,fremskridt,babble_50.wav,illoyal_reversed.wav,trofæ_reversed.wav,,,,,0,79,79,79,,,z,1.3160956000210717,Miss,1.2576865168035563,9123,001,2025-12-06_17-38-12,
absent,0.1,SILENCE,NA,babble_19.wav,konkurs_reversed.wav,rigdom_reversed.wav,,,,,0,80,80,80,,,z,1.093408799963072,Correct Rejection,0.9144845386298939,9123,001,2025-12-06_17-38-12,
absent,0.6,SILENCE,NA,babble_82.wav,hader_reversed.wav,gratis_reversed.wav,,,,,0,81,81,81,,,z,1.6194894999498501,Correct Rejection,0.5389141031789783,9123,001,2025-12-06_17-38-12,
present,0.4,brutal_compressed.wav,brutal,babble_37.wav,fremskridt_reversed.wav,skammel_reversed.wav,,,,,0,82,82,82,,,z,1.9513213000027463,Miss,1.2547218126472452,9123,001,2025-12-06_17-38-12,
absent,0.3,SILENCE,NA,babble_46.wav,hjerte_reversed.wav,kage_reversed.wav,,,,,0,83,83,83,,,z,0.8406175000127405,Correct Rejection,1.291495692150184,9123,001,2025-12-06_17-38-12,
present,0.4,kontor_compressed.wav,kontor,babble_74.wav,beskidt_reversed.wav,sindssyg_reversed.wav,,,,,0,84,84,84,,,m,0.8405541000538506,Hit,0.615566814018359,9123,001,2025-12-06_17-38-12,
present,0.2,ønske_compressed.wav,ønske,babble_89.wav,sandhed_reversed.wav,violin_reversed.wav,,,,,0,85,85,85,,,m,0.8472606999566779,Hit,1.3390143618714685,9123,001,2025-12-06_17-38-12,
present,0.2,gaffel_compressed.wav,gaffel,babble_20.wav,slagtning_reversed.wav,røver_reversed.wav,,,,,0,86,86,86,,,m,0.8973515999969095,Hit,0.9536995179125926,9123,001,2025-12-06_17-38-12,
absent,0.4,SILENCE,NA,babble_38.wav,taxa_reversed.wav,glæde_reversed.wav,,,,,0,87,87,87,,,z,0.8127366999979131,Correct Rejection,0.875283004118127,9123,001,2025-12-06_17-38-12,
absent,0.2,SILENCE,NA,babble_11.wav,enhed_reversed.wav,ensom_reversed.wav,,,,,0,88,88,88,,,z,0.9497160000028089,Correct Rejection,0.9327233177783598,9123,001,2025-12-06_17-38-12,
absent,0.4,SILENCE,NA,babble_27.wav,sejre_reversed.wav,frihed_reversed.wav,,,,,0,89,89,89,,,z,0.985674099996686,Correct Rejection,0.8803693056973171,9123,001,2025-12-06_17-38-12,
present,0.6,skønhed_compressed.wav,skønhed,babble_17.wav,natur_reversed.wav,vindue_reversed.wav,,,,,0,90,90,90,,,z,0.8859261000179686,Miss,1.4788550275325543,9123,001,2025-12-06_17-38-12,
present,0.5,søsyg_compressed.wav,søsyg,babble_58.wav,nedbrud_reversed.wav,banner_reversed.wav,,,,,0,91,91,91,,,z,1.141708999988623,Miss,0.8074632316624311,9123,001,2025-12-06_17-38-12,
present,0.4,mester_compressed.wav,mester,babble_56.wav,himlen_reversed.wav,frygtsom_reversed.wav,,,,,0,92,92,92,,,m,1.1083596000098623,Hit,0.923097467938177,9123,001,2025-12-06_17-38-12,
absent,0.6,SILENCE,NA,babble_50.wav,brutal_reversed.wav,bifald_reversed.wav,,,,,0,93,93,93,,,z,1.0629612000193447,Correct Rejection,0.8890953484312094,9123,001,2025-12-06_17-38-12,
present,0.5,tilfreds_compressed.wav,tilfreds,babble_24.wav,ensom_reversed.wav,sindssyg_reversed.wav,,,,,0,94,94,94,,,m,1.1012235000380315,Hit,1.1630150894417788,9123,001,2025-12-06_17-38-12,
absent,0.3,SILENCE,NA,babble_75.wav,frihed_reversed.wav,ferie_reversed.wav,,,,,0,95,95,95,,,z,1.143169899994973,Correct Rejection,1.0022695383303815,9123,001,2025-12-06_17-38-12,
absent,0.5,SILENCE,NA,babble_97.wav,slave_reversed.wav,sæde_reversed.wav,,,,,0,96,96,96,,,z,1.5884475999628194,Correct Rejection,1.0497986848919496,9123,001,2025-12-06_17-38-12,
absent,0.3,SILENCE,NA,babble_19.wav,smerte_reversed.wav,opstemt_reversed.wav,,,,,0,97,97,97,,,z,1.846327899955213,Correct Rejection,0.7778565840755144,9123,001,2025-12-06_17-38-12,
