signal_type,compression_level,prime_file,correct_word,babbling_file,mask1_file,mask2_file,main.thisTrialN,response_key,rt,trial_outcome,signal_type.1,compression_level.1,correct_word.1,prime_file.1,babble_duration,Participant ID,Session,date
present,0.3,offer_compressed.wav,offer,babble_9.wav,kiste_reversed.wav,lækker_reversed.wav,-1.0,z,6.49545168876648,Miss,present,0.3,offer,offer_compressed.wav,1.4670287263374449,810.0,1.0,2025-11-26_20-29-23
absent,0.5,SILENCE,,babble_75.wav,pjece_reversed.wav,grimme_reversed.wav,-1.0,z,0.7218892574310303,Correct Rejection,absent,0.5,,SILENCE,1.0528077569620076,810.0,1.0,2025-11-26_20-29-23
present,0.4,offer_compressed.wav,offer,babble_85.wav,respekt_reversed.wav,genert_reversed.wav,-1.0,z,0.9029302597045898,Miss,present,0.4,offer,offer_compressed.wav,1.442059015836772,810.0,1.0,2025-11-26_20-29-23
absent,0.1,SILENCE,,babble_71.wav,gratis_reversed.wav,boble_reversed.wav,-1.0,z,11.381826400756836,Correct Rejection,absent,0.1,,SILENCE,0.9101938410141384,810.0,1.0,2025-11-26_20-29-23
absent,0.2,SILENCE,,babble_86.wav,misbrug_reversed.wav,respekt_reversed.wav,-1.0,z,1.4113366603851318,Correct Rejection,absent,0.2,,SILENCE,0.5247905970990034,810.0,1.0,2025-11-26_20-29-23
present,0.7,kugle_compressed.wav,kugle,babble_10.wav,konge_reversed.wav,humor_reversed.wav,-1.0,z,1.6889450550079346,Miss,present,0.7,kugle,kugle_compressed.wav,0.6428732010942746,810.0,1.0,2025-11-26_20-29-23
present,0.5,bange_compressed.wav,bange,babble_41.wav,skade_reversed.wav,forkert_reversed.wav,-1.0,z,3.704476118087769,Miss,present,0.5,bange,bange_compressed.wav,0.6000808828857103,810.0,1.0,2025-11-26_20-29-23
absent,0.4,SILENCE,,babble_2.wav,kontor_reversed.wav,himmel_reversed.wav,-1.0,z,2.831578016281128,Correct Rejection,absent,0.4,,SILENCE,0.8882913723959951,810.0,1.0,2025-11-26_20-29-23
absent,0.6,SILENCE,,babble_29.wav,grusom_reversed.wav,feber_reversed.wav,-1.0,z,1.655576467514038,Correct Rejection,absent,0.6,,SILENCE,0.9482302695075124,810.0,1.0,2025-11-26_20-29-23
present,0.1,trofæ_compressed.wav,trofæ,babble_62.wav,drukne_reversed.wav,gaffel_reversed.wav,-1.0,m,1.2283062934875488,Hit,present,0.1,trofæ,trofæ_compressed.wav,0.8635383445671327,810.0,1.0,2025-11-26_20-29-23
present,0.2,banner_compressed.wav,banner,babble_84.wav,pervers_reversed.wav,ledning_reversed.wav,-1.0,m,4.618927717208862,Hit,present,0.2,banner,banner_compressed.wav,1.437283821173279,810.0,1.0,2025-11-26_20-29-23
present,0.6,syndig_compressed.wav,syndig,babble_43.wav,ketchup_reversed.wav,kande_reversed.wav,-1.0,z,0.740203857421875,Miss,present,0.6,syndig,syndig_compressed.wav,1.0738728107193083,810.0,1.0,2025-11-26_20-29-23
absent,0.3,SILENCE,,babble_37.wav,kande_reversed.wav,vinde_reversed.wav,-1.0,z,1.472341775894165,Correct Rejection,absent,0.3,,SILENCE,1.31456753347423,810.0,1.0,2025-11-26_20-29-23
absent,0.7,SILENCE,,babble_1.wav,skammel_reversed.wav,viden_reversed.wav,-1.0,z,1.2408673763275146,Correct Rejection,absent,0.7,,SILENCE,1.26615362197016,810.0,1.0,2025-11-26_20-29-23
present,0.2,kiste_compressed.wav,kiste,babble_95.wav,oprør_reversed.wav,passion_reversed.wav,0.0,z,0.5726273059844971,Miss,present,0.2,kiste,kiste_compressed.wav,1.2041386498345172,810.0,1.0,2025-11-26_20-29-23
absent,0.7,SILENCE,,babble_68.wav,marked_reversed.wav,djævel_reversed.wav,1.0,z,1.4948058128356934,Correct Rejection,absent,0.7,,SILENCE,0.6602216326216807,810.0,1.0,2025-11-26_20-29-23
present,0.2,rædsel_compressed.wav,rædsel,babble_55.wav,smerte_reversed.wav,gratis_reversed.wav,2.0,m,1.5266218185424805,Hit,present,0.2,rædsel,rædsel_compressed.wav,0.7795792184266457,810.0,1.0,2025-11-26_20-29-23
present,0.7,konge_compressed.wav,konge,babble_6.wav,marked_reversed.wav,sygdom_reversed.wav,3.0,m,1.847531080245972,Hit,present,0.7,konge,konge_compressed.wav,1.22468946209134,810.0,1.0,2025-11-26_20-29-23
absent,0.5,SILENCE,,babble_5.wav,succes_reversed.wav,heldig_reversed.wav,4.0,z,0.5616898536682129,Correct Rejection,absent,0.5,,SILENCE,1.165892253928782,810.0,1.0,2025-11-26_20-29-23
present,0.6,maling_compressed.wav,maling,babble_92.wav,taber_reversed.wav,ønske_reversed.wav,5.0,z,2.878472089767456,Miss,present,0.6,maling,maling_compressed.wav,1.2153472800762304,810.0,1.0,2025-11-26_20-29-23
present,0.7,gaffel_compressed.wav,gaffel,babble_11.wav,rigdom_reversed.wav,røver_reversed.wav,6.0,z,1.5065953731536863,Miss,present,0.7,gaffel,gaffel_compressed.wav,1.1616782677457804,810.0,1.0,2025-11-26_20-29-23
present,0.1,dollar_compressed.wav,dollar,babble_67.wav,natur_reversed.wav,tilfreds_reversed.wav,7.0,m,0.6223495006561279,Hit,present,0.1,dollar,dollar_compressed.wav,0.8618277961108011,810.0,1.0,2025-11-26_20-29-23
absent,0.7,SILENCE,,babble_91.wav,djævel_reversed.wav,forpint_reversed.wav,8.0,z,0.850940465927124,Correct Rejection,absent,0.7,,SILENCE,1.293382039405179,810.0,1.0,2025-11-26_20-29-23
absent,0.1,SILENCE,,babble_66.wav,fjollet_reversed.wav,brænde_reversed.wav,9.0,z,1.137503147125244,Correct Rejection,absent,0.1,,SILENCE,1.168178069969951,810.0,1.0,2025-11-26_20-29-23
present,0.6,frelser_compressed.wav,frelser,babble_9.wav,nonsens_reversed.wav,sæde_reversed.wav,10.0,m,0.9378666877746582,Hit,present,0.6,frelser,frelser_compressed.wav,0.5241636557334465,810.0,1.0,2025-11-26_20-29-23
present,0.3,gratis_compressed.wav,gratis,babble_3.wav,skønhed_reversed.wav,morder_reversed.wav,11.0,m,1.386366844177246,Hit,present,0.3,gratis,gratis_compressed.wav,0.6820082830215494,810.0,1.0,2025-11-26_20-29-23
absent,0.1,SILENCE,,babble_85.wav,talent_reversed.wav,væmmes_reversed.wav,12.0,z,0.5241982936859131,Correct Rejection,absent,0.1,,SILENCE,0.8817831840658769,810.0,1.0,2025-11-26_20-29-23
present,0.4,venlig_compressed.wav,venlig,babble_61.wav,konge_reversed.wav,luksus_reversed.wav,13.0,z,3.797183036804199,Miss,present,0.4,venlig,venlig_compressed.wav,0.813421784449264,810.0,1.0,2025-11-26_20-29-23
present,0.5,finger_compressed.wav,finger,babble_63.wav,sollys_reversed.wav,koldbrand_reversed.wav,14.0,z,1.4022092819213867,Miss,present,0.5,finger,finger_compressed.wav,0.7740830153305922,810.0,1.0,2025-11-26_20-29-23
present,0.1,slagtning_compressed.wav,slagtning,babble_48.wav,konge_reversed.wav,misbrug_reversed.wav,15.0,m,0.5286297798156738,Hit,present,0.1,slagtning,slagtning_compressed.wav,1.310480828664836,810.0,1.0,2025-11-26_20-29-23
absent,0.4,SILENCE,,babble_7.wav,marked_reversed.wav,blodig_reversed.wav,16.0,z,1.158583641052246,Correct Rejection,absent,0.4,,SILENCE,1.2281500519357484,810.0,1.0,2025-11-26_20-29-23
absent,0.3,SILENCE,,babble_6.wav,trofæ_reversed.wav,forfald_reversed.wav,17.0,z,1.2047860622406006,Correct Rejection,absent,0.3,,SILENCE,1.2975698279419037,810.0,1.0,2025-11-26_20-29-23
present,0.4,papir_compressed.wav,papir,babble_48.wav,mester_reversed.wav,borddug_reversed.wav,18.0,m,0.4751362800598144,Hit,present,0.4,papir,papir_compressed.wav,0.6623768543070577,810.0,1.0,2025-11-26_20-29-23
absent,0.3,SILENCE,,babble_56.wav,frygtsom_reversed.wav,engel_reversed.wav,19.0,z,0.5984594821929932,Correct Rejection,absent,0.3,,SILENCE,1.4552802590452814,810.0,1.0,2025-11-26_20-29-23
absent,0.2,SILENCE,,babble_45.wav,natur_reversed.wav,koldbrand_reversed.wav,20.0,z,0.5898237228393555,Correct Rejection,absent,0.2,,SILENCE,1.23164384539608,810.0,1.0,2025-11-26_20-29-23
present,0.1,krise_compressed.wav,krise,babble_5.wav,bange_reversed.wav,baby_reversed.wav,21.0,z,1.0095057487487793,Miss,present,0.1,krise,krise_compressed.wav,1.3440843553397008,810.0,1.0,2025-11-26_20-29-23
absent,0.5,SILENCE,,babble_71.wav,patent_reversed.wav,oprørt_reversed.wav,22.0,z,1.054058313369751,Correct Rejection,absent,0.5,,SILENCE,1.4809506453855454,810.0,1.0,2025-11-26_20-29-23
absent,0.4,SILENCE,,babble_18.wav,ankel_reversed.wav,mave_reversed.wav,23.0,z,1.1335163116455078,Correct Rejection,absent,0.4,,SILENCE,0.9150201657257672,810.0,1.0,2025-11-26_20-29-23
present,0.7,leder_compressed.wav,leder,babble_25.wav,rotte_reversed.wav,natur_reversed.wav,24.0,z,1.149064302444458,Miss,present,0.7,leder,leder_compressed.wav,0.5729115336903547,810.0,1.0,2025-11-26_20-29-23
absent,0.6,SILENCE,,babble_46.wav,sygdom_reversed.wav,hader_reversed.wav,25.0,m,4.37350058555603,False Alarm,absent,0.6,,SILENCE,1.0201381886754444,810.0,1.0,2025-11-26_20-29-23
present,0.1,ledning_compressed.wav,ledning,babble_41.wav,respekt_reversed.wav,motor_reversed.wav,26.0,m,0.6132590770721436,Hit,present,0.1,ledning,ledning_compressed.wav,1.2512551821125075,810.0,1.0,2025-11-26_20-29-23
absent,0.1,SILENCE,,babble_53.wav,accept_reversed.wav,hjerte_reversed.wav,27.0,m,1.0035524368286133,False Alarm,absent,0.1,,SILENCE,1.267991318660051,810.0,1.0,2025-11-26_20-29-23
absent,0.4,SILENCE,,babble_22.wav,humor_reversed.wav,trussel_reversed.wav,28.0,z,0.5149996280670166,Correct Rejection,absent,0.4,,SILENCE,1.1790119789533278,810.0,1.0,2025-11-26_20-29-23
absent,0.5,SILENCE,,babble_60.wav,trussel_reversed.wav,tumor_reversed.wav,29.0,z,1.2499184608459473,Correct Rejection,absent,0.5,,SILENCE,1.3885650507259495,810.0,1.0,2025-11-26_20-29-23
present,0.4,minder_compressed.wav,minder,babble_73.wav,frihed_reversed.wav,oprørt_reversed.wav,30.0,m,0.8595218658447266,Hit,present,0.4,minder,minder_compressed.wav,1.1787943825912284,810.0,1.0,2025-11-26_20-29-23
present,0.4,hjerte_compressed.wav,hjerte,babble_42.wav,museum_reversed.wav,bifald_reversed.wav,31.0,z,4.272686958312988,Miss,present,0.4,hjerte,hjerte_compressed.wav,0.9048009121146424,810.0,1.0,2025-11-26_20-29-23
present,0.7,natur_compressed.wav,natur,babble_20.wav,måned_reversed.wav,kontor_reversed.wav,32.0,m,0.6055853366851807,Hit,present,0.7,natur,natur_compressed.wav,0.9346392413014206,810.0,1.0,2025-11-26_20-29-23
absent,0.2,SILENCE,,babble_54.wav,putte_reversed.wav,glæde_reversed.wav,33.0,z,0.5976717472076416,Correct Rejection,absent,0.2,,SILENCE,1.2098412742368423,810.0,1.0,2025-11-26_20-29-23
absent,0.6,SILENCE,,babble_24.wav,nøgle_reversed.wav,bifald_reversed.wav,34.0,z,2.1682229042053223,Correct Rejection,absent,0.6,,SILENCE,1.000945394450302,810.0,1.0,2025-11-26_20-29-23
present,0.2,mester_compressed.wav,mester,babble_17.wav,illoyal_reversed.wav,dæmon_reversed.wav,35.0,m,0.5010077953338623,Hit,present,0.2,mester,mester_compressed.wav,0.6942051121035213,810.0,1.0,2025-11-26_20-29-23
present,0.2,festlig_compressed.wav,festlig,babble_53.wav,væmmes_reversed.wav,rigdom_reversed.wav,36.0,z,0.7989084720611572,Miss,present,0.2,festlig,festlig_compressed.wav,0.6899745288001045,810.0,1.0,2025-11-26_20-29-23
present,0.3,salat_compressed.wav,salat,babble_67.wav,dæmpet_reversed.wav,sygdom_reversed.wav,37.0,z,2.7378125190734863,Miss,present,0.3,salat,salat_compressed.wav,1.3445507867359572,810.0,1.0,2025-11-26_20-29-23
present,0.5,brutal_compressed.wav,brutal,babble_75.wav,mave_reversed.wav,marked_reversed.wav,38.0,z,2.7412357330322266,Miss,present,0.5,brutal,brutal_compressed.wav,1.0276596409600591,810.0,1.0,2025-11-26_20-29-23
absent,0.3,SILENCE,,babble_56.wav,ensom_reversed.wav,ugle_reversed.wav,39.0,z,1.4852006435394287,Correct Rejection,absent,0.3,,SILENCE,0.6990559703934187,810.0,1.0,2025-11-26_20-29-23
absent,0.2,SILENCE,,babble_72.wav,sexet_reversed.wav,forkert_reversed.wav,40.0,z,1.1292939186096191,Correct Rejection,absent,0.2,,SILENCE,1.3045237534873908,810.0,1.0,2025-11-26_20-29-23
present,0.5,grusom_compressed.wav,grusom,babble_61.wav,forkert_reversed.wav,kugle_reversed.wav,41.0,z,2.0274949073791504,Miss,present,0.5,grusom,grusom_compressed.wav,0.7724051141308252,810.0,1.0,2025-11-26_20-29-23
absent,0.6,SILENCE,,babble_16.wav,latter_reversed.wav,knude_reversed.wav,42.0,m,3.526238441467285,False Alarm,absent,0.6,,SILENCE,1.3244070767418925,810.0,1.0,2025-11-26_20-29-23
present,0.5,gade_compressed.wav,gade,babble_66.wav,frygtsom_reversed.wav,krise_reversed.wav,43.0,m,0.484504222869873,Hit,present,0.5,gade,gade_compressed.wav,0.7018940056404664,810.0,1.0,2025-11-26_20-29-23
present,0.5,putte_compressed.wav,putte,babble_94.wav,latter_reversed.wav,opstemt_reversed.wav,44.0,z,3.315782070159912,Miss,present,0.5,putte,putte_compressed.wav,0.9357207586738034,810.0,1.0,2025-11-26_20-29-23
present,0.1,måned_compressed.wav,måned,babble_56.wav,himlen_reversed.wav,natur_reversed.wav,45.0,m,0.6881577968597412,Hit,present,0.1,måned,måned_compressed.wav,1.4249359324210813,810.0,1.0,2025-11-26_20-29-23
absent,0.5,SILENCE,,babble_38.wav,syndig_reversed.wav,ensom_reversed.wav,46.0,z,1.3391437530517578,Correct Rejection,absent,0.5,,SILENCE,0.9189603921151358,810.0,1.0,2025-11-26_20-29-23
present,0.6,kærtegn_compressed.wav,kærtegn,babble_30.wav,bombe_reversed.wav,forpint_reversed.wav,47.0,z,0.6480555534362793,Miss,present,0.6,kærtegn,kærtegn_compressed.wav,0.8790585216585814,810.0,1.0,2025-11-26_20-29-23
present,0.3,forkert_compressed.wav,forkert,babble_55.wav,dæmpet_reversed.wav,sollys_reversed.wav,48.0,z,3.8653717041015625,Miss,present,0.3,forkert,forkert_compressed.wav,1.0385733404888438,810.0,1.0,2025-11-26_20-29-23
absent,0.5,SILENCE,,babble_99.wav,ankel_reversed.wav,giftig_reversed.wav,49.0,z,2.4414191246032715,Correct Rejection,absent,0.5,,SILENCE,1.0296145703471302,810.0,1.0,2025-11-26_20-29-23
absent,0.7,SILENCE,,babble_1.wav,rådden_reversed.wav,sæde_reversed.wav,50.0,z,1.0744309425354004,Correct Rejection,absent,0.7,,SILENCE,0.8491335798478884,810.0,1.0,2025-11-26_20-29-23
absent,0.7,SILENCE,,babble_67.wav,gratis_reversed.wav,bygning_reversed.wav,51.0,z,2.186723232269287,Correct Rejection,absent,0.7,,SILENCE,0.9711963616953252,810.0,1.0,2025-11-26_20-29-23
present,0.1,sejre_compressed.wav,sejre,babble_74.wav,banner_reversed.wav,kærtegn_reversed.wav,52.0,z,2.133094549179077,Miss,present,0.1,sejre,sejre_compressed.wav,1.0134633344849266,810.0,1.0,2025-11-26_20-29-23
absent,0.7,SILENCE,,babble_95.wav,metal_reversed.wav,plakat_reversed.wav,53.0,z,1.6987311840057373,Correct Rejection,absent,0.7,,SILENCE,0.5231087783002093,810.0,1.0,2025-11-26_20-29-23
absent,0.2,SILENCE,,babble_74.wav,museum_reversed.wav,borddug_reversed.wav,54.0,m,0.5391793251037598,False Alarm,absent,0.2,,SILENCE,1.079912759111259,810.0,1.0,2025-11-26_20-29-23
absent,0.4,SILENCE,,babble_9.wav,ensom_reversed.wav,gaffel_reversed.wav,55.0,z,0.6267135143280029,Correct Rejection,absent,0.4,,SILENCE,1.3472800777386706,810.0,1.0,2025-11-26_20-29-23
present,0.7,diamant_compressed.wav,diamant,babble_84.wav,brænde_reversed.wav,latter_reversed.wav,56.0,m,1.363391399383545,Hit,present,0.7,diamant,diamant_compressed.wav,1.1701704757757598,810.0,1.0,2025-11-26_20-29-23
absent,0.7,SILENCE,,babble_22.wav,konge_reversed.wav,skønhed_reversed.wav,57.0,z,0.8680005073547363,Correct Rejection,absent,0.7,,SILENCE,1.3344727383803303,810.0,1.0,2025-11-26_20-29-23
present,0.1,bange_compressed.wav,bange,babble_75.wav,pervers_reversed.wav,kujon_reversed.wav,58.0,z,0.8447840213775635,Miss,present,0.1,bange,bange_compressed.wav,0.7501003871303953,810.0,1.0,2025-11-26_20-29-23
absent,0.1,SILENCE,,babble_72.wav,luksus_reversed.wav,heldig_reversed.wav,59.0,z,1.5033783912658691,Correct Rejection,absent,0.1,,SILENCE,0.7862207982935345,810.0,1.0,2025-11-26_20-29-23
present,0.3,misbrug_compressed.wav,misbrug,babble_36.wav,traume_reversed.wav,glæde_reversed.wav,60.0,z,1.1909782886505127,Miss,present,0.3,misbrug,misbrug_compressed.wav,1.218834155283418,810.0,1.0,2025-11-26_20-29-23
present,0.2,kage_compressed.wav,kage,babble_69.wav,rigdom_reversed.wav,frihed_reversed.wav,61.0,m,0.438906192779541,Hit,present,0.2,kage,kage_compressed.wav,0.6050797731560861,810.0,1.0,2025-11-26_20-29-23
absent,0.2,SILENCE,,babble_35.wav,måned_reversed.wav,spise_reversed.wav,62.0,z,0.4514393806457519,Correct Rejection,absent,0.2,,SILENCE,1.0855226140357468,810.0,1.0,2025-11-26_20-29-23
absent,0.2,SILENCE,,babble_37.wav,salat_reversed.wav,rotte_reversed.wav,63.0,z,0.5813889503479004,Correct Rejection,absent,0.2,,SILENCE,0.6886298258882445,810.0,1.0,2025-11-26_20-29-23
present,0.5,kysse_compressed.wav,kysse,babble_86.wav,trofæ_reversed.wav,drukne_reversed.wav,64.0,m,0.4720194339752197,Hit,present,0.5,kysse,kysse_compressed.wav,0.9008713571577668,810.0,1.0,2025-11-26_20-29-23
absent,0.4,SILENCE,,babble_19.wav,spise_reversed.wav,ensom_reversed.wav,65.0,z,0.7118721008300781,Correct Rejection,absent,0.4,,SILENCE,0.991070588485033,810.0,1.0,2025-11-26_20-29-23
absent,0.1,SILENCE,,babble_33.wav,rabies_reversed.wav,brutal_reversed.wav,66.0,z,0.6005814075469971,Correct Rejection,absent,0.1,,SILENCE,0.686061706391627,810.0,1.0,2025-11-26_20-29-23
absent,0.6,SILENCE,,babble_42.wav,sandhed_reversed.wav,vandal_reversed.wav,67.0,z,1.852787971496582,Correct Rejection,absent,0.6,,SILENCE,1.2750557477018198,810.0,1.0,2025-11-26_20-29-23
present,0.3,kande_compressed.wav,kande,babble_74.wav,fedme_reversed.wav,skammel_reversed.wav,68.0,m,0.8386344909667969,Hit,present,0.3,kande,kande_compressed.wav,0.7958418186772664,810.0,1.0,2025-11-26_20-29-23
absent,0.4,SILENCE,,babble_95.wav,drukne_reversed.wav,fjendtlig_reversed.wav,69.0,m,0.4909822940826416,False Alarm,absent,0.4,,SILENCE,1.4231468840187818,810.0,1.0,2025-11-26_20-29-23
present,0.6,minder_compressed.wav,minder,babble_71.wav,gidsel_reversed.wav,rigdom_reversed.wav,70.0,z,0.5488681793212891,Miss,present,0.6,minder,minder_compressed.wav,0.5508267886416606,810.0,1.0,2025-11-26_20-29-23
present,0.4,kugle_compressed.wav,kugle,babble_90.wav,redning_reversed.wav,diamant_reversed.wav,71.0,z,0.5263736248016357,Miss,present,0.4,kugle,kugle_compressed.wav,0.5271177212830409,810.0,1.0,2025-11-26_20-29-23
present,0.7,bombe_compressed.wav,bombe,babble_4.wav,sygdom_reversed.wav,accept_reversed.wav,72.0,z,0.4352939128875732,Miss,present,0.7,bombe,bombe_compressed.wav,0.6050188082388647,810.0,1.0,2025-11-26_20-29-23
present,0.7,afvist_compressed.wav,afvist,babble_6.wav,enhed_reversed.wav,røver_reversed.wav,73.0,m,0.4115228652954101,Hit,present,0.7,afvist,afvist_compressed.wav,0.9998823513128942,810.0,1.0,2025-11-26_20-29-23
absent,0.6,SILENCE,,babble_27.wav,kæle_reversed.wav,banner_reversed.wav,74.0,z,0.8711106777191162,Correct Rejection,absent,0.6,,SILENCE,0.6545515483576412,810.0,1.0,2025-11-26_20-29-23
absent,0.3,SILENCE,,babble_73.wav,opstemt_reversed.wav,lampe_reversed.wav,75.0,z,1.1126816272735596,Correct Rejection,absent,0.3,,SILENCE,1.427984070061441,810.0,1.0,2025-11-26_20-29-23
present,0.6,viden_compressed.wav,viden,babble_65.wav,rådden_reversed.wav,engel_reversed.wav,76.0,z,0.8535540103912354,Miss,present,0.6,viden,viden_compressed.wav,1.320582759164537,810.0,1.0,2025-11-26_20-29-23
absent,0.5,SILENCE,,babble_74.wav,trussel_reversed.wav,albue_reversed.wav,77.0,z,1.0447711944580078,Correct Rejection,absent,0.5,,SILENCE,0.6601583070114756,810.0,1.0,2025-11-26_20-29-23
absent,0.6,SILENCE,,babble_91.wav,pervers_reversed.wav,dæmon_reversed.wav,78.0,z,0.73537278175354,Correct Rejection,absent,0.6,,SILENCE,0.6688626084871915,810.0,1.0,2025-11-26_20-29-23
absent,0.7,SILENCE,,babble_38.wav,gidsel_reversed.wav,pude_reversed.wav,79.0,z,0.7433450222015381,Correct Rejection,absent,0.7,,SILENCE,1.071769883276252,810.0,1.0,2025-11-26_20-29-23
absent,0.1,SILENCE,,babble_67.wav,vinde_reversed.wav,gade_reversed.wav,80.0,z,0.5237081050872803,Correct Rejection,absent,0.1,,SILENCE,1.492141187900068,810.0,1.0,2025-11-26_20-29-23
absent,0.1,SILENCE,,babble_64.wav,bifald_reversed.wav,fremskridt_reversed.wav,81.0,z,1.4420890808105469,Correct Rejection,absent,0.1,,SILENCE,0.9624661069125124,810.0,1.0,2025-11-26_20-29-23
absent,0.3,SILENCE,,babble_43.wav,magisk_reversed.wav,talent_reversed.wav,82.0,z,0.9701926708221436,Correct Rejection,absent,0.3,,SILENCE,0.9932595222280052,810.0,1.0,2025-11-26_20-29-23
present,0.5,bombe_compressed.wav,bombe,babble_60.wav,morder_reversed.wav,passion_reversed.wav,83.0,m,0.6493279933929443,Hit,present,0.5,bombe,bombe_compressed.wav,1.1539703904959424,810.0,1.0,2025-11-26_20-29-23
present,0.2,plakat_compressed.wav,plakat,babble_55.wav,rotte_reversed.wav,sindssyg_reversed.wav,84.0,m,0.4544634819030761,Hit,present,0.2,plakat,plakat_compressed.wav,1.4821294273189056,810.0,1.0,2025-11-26_20-29-23
absent,0.6,SILENCE,,babble_1.wav,albue_reversed.wav,natur_reversed.wav,85.0,z,0.6315915584564209,Correct Rejection,absent,0.6,,SILENCE,1.0601822514159165,810.0,1.0,2025-11-26_20-29-23
present,0.3,baby_compressed.wav,baby,babble_93.wav,tumor_reversed.wav,bygning_reversed.wav,86.0,z,0.4867234230041504,Miss,present,0.3,baby,baby_compressed.wav,1.0342649463175295,810.0,1.0,2025-11-26_20-29-23
present,0.6,kande_compressed.wav,kande,babble_64.wav,vindue_reversed.wav,djævel_reversed.wav,87.0,m,0.327573299407959,Hit,present,0.6,kande,kande_compressed.wav,0.5681822025388675,810.0,1.0,2025-11-26_20-29-23
absent,0.3,SILENCE,,babble_5.wav,poesi_reversed.wav,violin_reversed.wav,88.0,z,0.8272073268890381,Correct Rejection,absent,0.3,,SILENCE,0.5718582824771645,810.0,1.0,2025-11-26_20-29-23
absent,0.5,SILENCE,,babble_69.wav,voldtægt_reversed.wav,genstand_reversed.wav,89.0,z,0.4619538784027099,Correct Rejection,absent,0.5,,SILENCE,0.5958189745832686,810.0,1.0,2025-11-26_20-29-23
present,0.4,ferie_compressed.wav,ferie,babble_40.wav,sejre_reversed.wav,dæmon_reversed.wav,90.0,z,0.5026209354400635,Miss,present,0.4,ferie,ferie_compressed.wav,0.5946187739515142,810.0,1.0,2025-11-26_20-29-23
present,0.3,sindssyg_compressed.wav,sindssyg,babble_35.wav,kedel_reversed.wav,nonne_reversed.wav,91.0,m,0.2925891876220703,Hit,present,0.3,sindssyg,sindssyg_compressed.wav,1.1562112495111214,810.0,1.0,2025-11-26_20-29-23
present,0.4,leder_compressed.wav,leder,babble_0.wav,forfald_reversed.wav,magisk_reversed.wav,92.0,z,0.4925918579101562,Miss,present,0.4,leder,leder_compressed.wav,1.137637413257691,810.0,1.0,2025-11-26_20-29-23
present,0.6,utro_compressed.wav,utro,babble_16.wav,sikker_reversed.wav,ketchup_reversed.wav,93.0,m,2.2730391025543213,Hit,present,0.6,utro,utro_compressed.wav,1.1013708068601904,810.0,1.0,2025-11-26_20-29-23
absent,0.4,SILENCE,,babble_73.wav,hader_reversed.wav,forpint_reversed.wav,94.0,z,0.4784238338470459,Correct Rejection,absent,0.4,,SILENCE,1.1562903401725086,810.0,1.0,2025-11-26_20-29-23
present,0.2,kande_compressed.wav,kande,babble_83.wav,heldig_reversed.wav,brutal_reversed.wav,95.0,m,0.5611720085144043,Hit,present,0.2,kande,kande_compressed.wav,0.5440978936925619,810.0,1.0,2025-11-26_20-29-23
absent,0.2,SILENCE,,babble_17.wav,flirte_reversed.wav,kærtegn_reversed.wav,96.0,z,2.1759066581726074,Correct Rejection,absent,0.2,,SILENCE,1.0007232556316072,810.0,1.0,2025-11-26_20-29-23
absent,0.3,SILENCE,,babble_26.wav,mester_reversed.wav,voldtægt_reversed.wav,97.0,z,0.6890573501586914,Correct Rejection,absent,0.3,,SILENCE,0.9440964239621198,810.0,1.0,2025-11-26_20-29-23
absent,0.4,SILENCE,,babble_75.wav,pervers_reversed.wav,trofæ_reversed.wav,-1.0,z,3.211277961730957,Correct Rejection,absent,0.4,,SILENCE,1.1110493198301352,7896.0,1.0,2025-11-17_09-26-58
absent,0.5,SILENCE,,babble_78.wav,ørken_reversed.wav,traume_reversed.wav,-1.0,z,1.772979974746704,Correct Rejection,absent,0.5,,SILENCE,0.7334702122817642,7896.0,1.0,2025-11-17_09-26-58
present,0.4,dollar_compressed.wav,dollar,babble_14.wav,vandal_reversed.wav,bombe_reversed.wav,-1.0,m,1.5687379837036133,Hit,present,0.4,dollar,dollar_compressed.wav,0.9816285608846927,7896.0,1.0,2025-11-17_09-26-58
present,0.1,plakat_compressed.wav,plakat,babble_6.wav,hage_reversed.wav,enhed_reversed.wav,-1.0,m,0.5265581607818604,Hit,present,0.1,plakat,plakat_compressed.wav,0.7194599643187893,7896.0,1.0,2025-11-17_09-26-58
absent,0.2,SILENCE,,babble_58.wav,morder_reversed.wav,grusom_reversed.wav,-1.0,z,0.9617011547088624,Correct Rejection,absent,0.2,,SILENCE,0.9679875919326836,7896.0,1.0,2025-11-17_09-26-58
present,0.2,ønske_compressed.wav,ønske,babble_23.wav,nonsens_reversed.wav,plakat_reversed.wav,-1.0,z,0.8678228855133057,Miss,present,0.2,ønske,ønske_compressed.wav,1.352259571502878,7896.0,1.0,2025-11-17_09-26-58
present,0.7,rabies_compressed.wav,rabies,babble_59.wav,skammel_reversed.wav,gave_reversed.wav,-1.0,m,1.4315650463104248,Hit,present,0.7,rabies,rabies_compressed.wav,0.7505792784090782,7896.0,1.0,2025-11-17_09-26-58
absent,0.3,SILENCE,,babble_9.wav,tilfreds_reversed.wav,statue_reversed.wav,-1.0,z,0.8221621513366699,Correct Rejection,absent,0.3,,SILENCE,1.2230486935226983,7896.0,1.0,2025-11-17_09-26-58
present,0.6,viden_compressed.wav,viden,babble_19.wav,humor_reversed.wav,passion_reversed.wav,-1.0,z,1.1081690788269043,Miss,present,0.6,viden,viden_compressed.wav,0.8656445234454357,7896.0,1.0,2025-11-17_09-26-58
present,0.3,fremskridt_compressed.wav,fremskridt,babble_48.wav,fjendtlig_reversed.wav,syndig_reversed.wav,-1.0,m,1.2288539409637451,Hit,present,0.3,fremskridt,fremskridt_compressed.wav,1.1957968967200614,7896.0,1.0,2025-11-17_09-26-58
absent,0.6,SILENCE,,babble_25.wav,oprør_reversed.wav,leder_reversed.wav,-1.0,z,1.3670179843902588,Correct Rejection,absent,0.6,,SILENCE,0.981656943678062,7896.0,1.0,2025-11-17_09-26-58
absent,0.1,SILENCE,,babble_34.wav,sejre_reversed.wav,pjece_reversed.wav,-1.0,z,1.3442301750183103,Correct Rejection,absent,0.1,,SILENCE,1.388693272170768,7896.0,1.0,2025-11-17_09-26-58
absent,0.7,SILENCE,,babble_91.wav,redskab_reversed.wav,misbrug_reversed.wav,-1.0,m,1.26515793800354,False Alarm,absent,0.7,,SILENCE,0.922932600556222,7896.0,1.0,2025-11-17_09-26-58
present,0.5,brænde_compressed.wav,brænde,babble_38.wav,blodig_reversed.wav,respekt_reversed.wav,-1.0,z,1.06020188331604,Miss,present,0.5,brænde,brænde_compressed.wav,1.0807996163225644,7896.0,1.0,2025-11-17_09-26-58
present,0.4,lærer_compressed.wav,lærer,babble_12.wav,ankel_reversed.wav,forpint_reversed.wav,0.0,m,1.2519571781158447,Hit,present,0.4,lærer,lærer_compressed.wav,1.353729822897329,7896.0,1.0,2025-11-17_09-26-58
absent,0.4,SILENCE,,babble_2.wav,drukne_reversed.wav,banner_reversed.wav,1.0,z,0.977626085281372,Correct Rejection,absent,0.4,,SILENCE,0.5507062120776892,7896.0,1.0,2025-11-17_09-26-58
present,0.2,sikker_compressed.wav,sikker,babble_99.wav,stjerne_reversed.wav,hjerte_reversed.wav,2.0,m,0.8528540134429932,Hit,present,0.2,sikker,sikker_compressed.wav,0.791416806984603,7896.0,1.0,2025-11-17_09-26-58
absent,0.3,SILENCE,,babble_46.wav,poesi_reversed.wav,rædsel_reversed.wav,3.0,z,0.958031177520752,Correct Rejection,absent,0.3,,SILENCE,0.9195130705328868,7896.0,1.0,2025-11-17_09-26-58
absent,0.6,SILENCE,,babble_43.wav,himlen_reversed.wav,bombe_reversed.wav,4.0,z,1.12636399269104,Correct Rejection,absent,0.6,,SILENCE,0.6758921227908468,7896.0,1.0,2025-11-17_09-26-58
present,0.5,redning_compressed.wav,redning,babble_58.wav,skyldig_reversed.wav,utro_reversed.wav,5.0,m,0.645453929901123,Hit,present,0.5,redning,redning_compressed.wav,0.7665683687187208,7896.0,1.0,2025-11-17_09-26-58
present,0.6,magisk_compressed.wav,magisk,babble_62.wav,søsyg_reversed.wav,forkert_reversed.wav,6.0,m,0.4520771503448486,Hit,present,0.6,magisk,magisk_compressed.wav,1.1259840199128406,7896.0,1.0,2025-11-17_09-26-58
absent,0.5,SILENCE,,babble_10.wav,tumor_reversed.wav,hader_reversed.wav,7.0,z,1.962731122970581,Correct Rejection,absent,0.5,,SILENCE,0.9937178609471368,7896.0,1.0,2025-11-17_09-26-58
absent,0.7,SILENCE,,babble_72.wav,albue_reversed.wav,illoyal_reversed.wav,8.0,z,2.8689939975738525,Correct Rejection,absent,0.7,,SILENCE,1.4979027734783454,7896.0,1.0,2025-11-17_09-26-58
present,0.2,hader_compressed.wav,hader,babble_57.wav,skyldig_reversed.wav,passion_reversed.wav,9.0,m,0.4115869998931885,Hit,present,0.2,hader,hader_compressed.wav,0.920721885297917,7896.0,1.0,2025-11-17_09-26-58
present,0.4,himmel_compressed.wav,himmel,babble_61.wav,fjendtlig_reversed.wav,avis_reversed.wav,10.0,z,1.2288250923156738,Miss,present,0.4,himmel,himmel_compressed.wav,0.939544501603754,7896.0,1.0,2025-11-17_09-26-58
absent,0.1,SILENCE,,babble_87.wav,taxa_reversed.wav,venlig_reversed.wav,11.0,z,1.044936180114746,Correct Rejection,absent,0.1,,SILENCE,0.694341501464737,7896.0,1.0,2025-11-17_09-26-58
present,0.5,sygdom_compressed.wav,sygdom,babble_19.wav,ørken_reversed.wav,pervers_reversed.wav,12.0,z,1.3922159671783447,Miss,present,0.5,sygdom,sygdom_compressed.wav,1.3568590771326603,7896.0,1.0,2025-11-17_09-26-58
absent,0.2,SILENCE,,babble_76.wav,lyse_reversed.wav,genstand_reversed.wav,13.0,z,1.582273006439209,Correct Rejection,absent,0.2,,SILENCE,0.953224921537394,7896.0,1.0,2025-11-17_09-26-58
present,0.2,hånlig_compressed.wav,hånlig,babble_14.wav,dollar_reversed.wav,flirte_reversed.wav,14.0,m,1.032080888748169,Hit,present,0.2,hånlig,hånlig_compressed.wav,1.0894214500885733,7896.0,1.0,2025-11-17_09-26-58
present,0.4,kvæles_compressed.wav,kvæles,babble_53.wav,sejre_reversed.wav,luksus_reversed.wav,15.0,z,1.1700332164764404,Miss,present,0.4,kvæles,kvæles_compressed.wav,1.2761010556767858,7896.0,1.0,2025-11-17_09-26-58
present,0.3,pjece_compressed.wav,pjece,babble_9.wav,skade_reversed.wav,marked_reversed.wav,16.0,m,1.354942798614502,Hit,present,0.3,pjece,pjece_compressed.wav,1.110850405038542,7896.0,1.0,2025-11-17_09-26-58
absent,0.5,SILENCE,,babble_22.wav,kande_reversed.wav,papir_reversed.wav,17.0,z,0.7277138233184814,Correct Rejection,absent,0.5,,SILENCE,0.5068325098340088,7896.0,1.0,2025-11-17_09-26-58
present,0.2,magisk_compressed.wav,magisk,babble_66.wav,offer_reversed.wav,redning_reversed.wav,18.0,m,0.1240301132202148,Hit,present,0.2,magisk,magisk_compressed.wav,0.566356785740558,7896.0,1.0,2025-11-17_09-26-58
present,0.5,patent_compressed.wav,patent,babble_50.wav,fedme_reversed.wav,tilfreds_reversed.wav,19.0,z,1.1549530029296875,Miss,present,0.5,patent,patent_compressed.wav,0.5113070752162454,7896.0,1.0,2025-11-17_09-26-58
present,0.6,mester_compressed.wav,mester,babble_90.wav,kedel_reversed.wav,slave_reversed.wav,20.0,m,1.364572048187256,Hit,present,0.6,mester,mester_compressed.wav,0.7129944642334628,7896.0,1.0,2025-11-17_09-26-58
absent,0.6,SILENCE,,babble_46.wav,dæmon_reversed.wav,jubel_reversed.wav,21.0,m,2.196053981781006,False Alarm,absent,0.6,,SILENCE,0.7254395573543567,7896.0,1.0,2025-11-17_09-26-58
absent,0.6,SILENCE,,babble_58.wav,fase_reversed.wav,enhed_reversed.wav,22.0,z,0.7980070114135742,Correct Rejection,absent,0.6,,SILENCE,0.7101489110284781,7896.0,1.0,2025-11-17_09-26-58
absent,0.2,SILENCE,,babble_30.wav,sollys_reversed.wav,nøgle_reversed.wav,23.0,z,1.2963697910308838,Correct Rejection,absent,0.2,,SILENCE,1.257092769406079,7896.0,1.0,2025-11-17_09-26-58
present,0.2,lærer_compressed.wav,lærer,babble_32.wav,festlig_reversed.wav,talent_reversed.wav,24.0,m,1.0015950202941897,Hit,present,0.2,lærer,lærer_compressed.wav,0.976566301887097,7896.0,1.0,2025-11-17_09-26-58
present,0.7,forfald_compressed.wav,forfald,babble_55.wav,baby_reversed.wav,fiasko_reversed.wav,25.0,z,1.407668113708496,Miss,present,0.7,forfald,forfald_compressed.wav,0.504603713320159,7896.0,1.0,2025-11-17_09-26-58
absent,0.3,SILENCE,,babble_91.wav,dæmon_reversed.wav,avis_reversed.wav,26.0,z,1.081956148147583,Correct Rejection,absent,0.3,,SILENCE,0.50678752377183,7896.0,1.0,2025-11-17_09-26-58
present,0.5,afskyr_compressed.wav,afskyr,babble_36.wav,skyldig_reversed.wav,dollar_reversed.wav,27.0,m,0.5301640033721924,Hit,present,0.5,afskyr,afskyr_compressed.wav,0.8232212092275581,7896.0,1.0,2025-11-17_09-26-58
present,0.1,affald_compressed.wav,affald,babble_92.wav,voldtægt_reversed.wav,kiste_reversed.wav,28.0,z,2.085286855697632,Miss,present,0.1,affald,affald_compressed.wav,1.4102596089066024,7896.0,1.0,2025-11-17_09-26-58
absent,0.5,SILENCE,,babble_30.wav,dollar_reversed.wav,djævel_reversed.wav,29.0,z,1.7462899684906006,Correct Rejection,absent,0.5,,SILENCE,1.2728774893596273,7896.0,1.0,2025-11-17_09-26-58
present,0.1,genert_compressed.wav,genert,babble_32.wav,motor_reversed.wav,motor_reversed.wav,30.0,m,0.3783149719238281,Hit,present,0.1,genert,genert_compressed.wav,0.69803800298923,7896.0,1.0,2025-11-17_09-26-58
present,0.3,skammel_compressed.wav,skammel,babble_11.wav,slagtning_reversed.wav,dæmon_reversed.wav,31.0,z,0.740617036819458,Miss,present,0.3,skammel,skammel_compressed.wav,0.8654370433243863,7896.0,1.0,2025-11-17_09-26-58
absent,0.2,SILENCE,,babble_4.wav,plakat_reversed.wav,sindssyg_reversed.wav,32.0,z,1.0146689414978027,Correct Rejection,absent,0.2,,SILENCE,1.1067184279942242,7896.0,1.0,2025-11-17_09-26-58
present,0.3,borddug_compressed.wav,borddug,babble_28.wav,offer_reversed.wav,papir_reversed.wav,33.0,m,0.5799150466918945,Hit,present,0.3,borddug,borddug_compressed.wav,0.5985332540989893,7896.0,1.0,2025-11-17_09-26-58
absent,0.1,SILENCE,,babble_22.wav,varme_reversed.wav,bifald_reversed.wav,34.0,z,1.638166904449463,Correct Rejection,absent,0.1,,SILENCE,1.2814001879571035,7896.0,1.0,2025-11-17_09-26-58
absent,0.7,SILENCE,,babble_27.wav,cirkel_reversed.wav,fase_reversed.wav,35.0,z,0.9215941429138184,Correct Rejection,absent,0.7,,SILENCE,0.5484664874401549,7896.0,1.0,2025-11-17_09-26-58
present,0.6,bifald_compressed.wav,bifald,babble_83.wav,grimme_reversed.wav,nonne_reversed.wav,36.0,z,1.203083038330078,Miss,present,0.6,bifald,bifald_compressed.wav,1.1125472254911273,7896.0,1.0,2025-11-17_09-26-58
present,0.3,bombe_compressed.wav,bombe,babble_47.wav,violin_reversed.wav,kontor_reversed.wav,37.0,m,0.4497480392456054,Hit,present,0.3,bombe,bombe_compressed.wav,0.8979492377189908,7896.0,1.0,2025-11-17_09-26-58
absent,0.4,SILENCE,,babble_52.wav,hjerte_reversed.wav,sindssyg_reversed.wav,38.0,z,1.601161003112793,Correct Rejection,absent,0.4,,SILENCE,0.5099610008802448,7896.0,1.0,2025-11-17_09-26-58
present,0.6,krise_compressed.wav,krise,babble_6.wav,feber_reversed.wav,rabies_reversed.wav,39.0,m,0.3797438144683838,Hit,present,0.6,krise,krise_compressed.wav,0.6277622562695649,7896.0,1.0,2025-11-17_09-26-58
present,0.7,bange_compressed.wav,bange,babble_1.wav,vandfald_reversed.wav,sollys_reversed.wav,40.0,m,0.5182061195373535,Hit,present,0.7,bange,bange_compressed.wav,0.6366164345381498,7896.0,1.0,2025-11-17_09-26-58
absent,0.7,SILENCE,,babble_20.wav,nøgle_reversed.wav,motor_reversed.wav,41.0,m,1.3293180465698242,False Alarm,absent,0.7,,SILENCE,1.0991350275343112,7896.0,1.0,2025-11-17_09-26-58
present,0.7,vinde_compressed.wav,vinde,babble_89.wav,kande_reversed.wav,knude_reversed.wav,42.0,m,0.4989190101623535,Hit,present,0.7,vinde,vinde_compressed.wav,1.1737937741346671,7896.0,1.0,2025-11-17_09-26-58
absent,0.5,SILENCE,,babble_6.wav,hage_reversed.wav,beskidt_reversed.wav,43.0,z,0.9283969402313232,Correct Rejection,absent,0.5,,SILENCE,1.0659597923195432,7896.0,1.0,2025-11-17_09-26-58
absent,0.3,SILENCE,,babble_1.wav,gave_reversed.wav,magisk_reversed.wav,44.0,z,0.3903179168701172,Correct Rejection,absent,0.3,,SILENCE,0.7169101074845866,7896.0,1.0,2025-11-17_09-26-58
absent,0.6,SILENCE,,babble_85.wav,kedel_reversed.wav,leder_reversed.wav,45.0,z,0.7566690444946289,Correct Rejection,absent,0.6,,SILENCE,1.3530324654836012,7896.0,1.0,2025-11-17_09-26-58
absent,0.5,SILENCE,,babble_35.wav,skyldig_reversed.wav,finger_reversed.wav,46.0,z,0.8307030200958252,Correct Rejection,absent,0.5,,SILENCE,0.802984618939396,7896.0,1.0,2025-11-17_09-26-58
absent,0.4,SILENCE,,babble_70.wav,skuffe_reversed.wav,fremskridt_reversed.wav,47.0,z,0.9788849353790284,Correct Rejection,absent,0.4,,SILENCE,0.5936461994352978,7896.0,1.0,2025-11-17_09-26-58
present,0.2,penge_compressed.wav,penge,babble_43.wav,ketchup_reversed.wav,illoyal_reversed.wav,48.0,m,0.3964087963104248,Hit,present,0.2,penge,penge_compressed.wav,1.0617664727942913,7896.0,1.0,2025-11-17_09-26-58
absent,0.1,SILENCE,,babble_75.wav,sollys_reversed.wav,spise_reversed.wav,49.0,m,0.2929399013519287,False Alarm,absent,0.1,,SILENCE,1.2170440619878615,7896.0,1.0,2025-11-17_09-26-58
present,0.5,sejre_compressed.wav,sejre,babble_96.wav,forfald_reversed.wav,glæde_reversed.wav,50.0,z,0.8936431407928467,Miss,present,0.5,sejre,sejre_compressed.wav,1.3652786617892896,7896.0,1.0,2025-11-17_09-26-58
absent,0.1,SILENCE,,babble_11.wav,rotte_reversed.wav,jubel_reversed.wav,51.0,z,1.0113940238952637,Correct Rejection,absent,0.1,,SILENCE,1.4635426620879008,7896.0,1.0,2025-11-17_09-26-58
absent,0.4,SILENCE,,babble_84.wav,humor_reversed.wav,rabies_reversed.wav,52.0,z,0.7567591667175293,Correct Rejection,absent,0.4,,SILENCE,1.08638652669611,7896.0,1.0,2025-11-17_09-26-58
present,0.2,ære_compressed.wav,ære,babble_59.wav,enhed_reversed.wav,fedme_reversed.wav,53.0,z,2.065704822540283,Miss,present,0.2,ære,ære_compressed.wav,0.6876623374843979,7896.0,1.0,2025-11-17_09-26-58
absent,0.7,SILENCE,,babble_6.wav,baby_reversed.wav,skyldig_reversed.wav,54.0,z,2.232883930206299,Correct Rejection,absent,0.7,,SILENCE,0.7795969587723813,7896.0,1.0,2025-11-17_09-26-58
present,0.6,banner_compressed.wav,banner,babble_54.wav,plakat_reversed.wav,ørken_reversed.wav,55.0,z,0.6345319747924805,Miss,present,0.6,banner,banner_compressed.wav,1.004823036937109,7896.0,1.0,2025-11-17_09-26-58
present,0.7,salat_compressed.wav,salat,babble_94.wav,dollar_reversed.wav,flirte_reversed.wav,56.0,m,0.4452240467071533,Hit,present,0.7,salat,salat_compressed.wav,1.3882986572578069,7896.0,1.0,2025-11-17_09-26-58
present,0.1,rædsel_compressed.wav,rædsel,babble_52.wav,nedbrud_reversed.wav,grimme_reversed.wav,57.0,m,2.316343069076538,Hit,present,0.1,rædsel,rædsel_compressed.wav,0.8110988289766944,7896.0,1.0,2025-11-17_09-26-58
absent,0.7,SILENCE,,babble_22.wav,kiste_reversed.wav,baby_reversed.wav,58.0,z,0.8609609603881836,Correct Rejection,absent,0.7,,SILENCE,1.1243697871201508,7896.0,1.0,2025-11-17_09-26-58
present,0.3,hjerte_compressed.wav,hjerte,babble_68.wav,succes_reversed.wav,syndig_reversed.wav,59.0,m,1.1122729778289795,Hit,present,0.3,hjerte,hjerte_compressed.wav,1.2242389855251563,7896.0,1.0,2025-11-17_09-26-58
present,0.4,gave_compressed.wav,gave,babble_36.wav,boble_reversed.wav,tilfreds_reversed.wav,60.0,z,1.2402870655059814,Miss,present,0.4,gave,gave_compressed.wav,0.5087034059231922,7896.0,1.0,2025-11-17_09-26-58
absent,0.2,SILENCE,,babble_7.wav,morder_reversed.wav,konkurs_reversed.wav,61.0,z,0.9589619636535645,Correct Rejection,absent,0.2,,SILENCE,1.4696495393715043,7896.0,1.0,2025-11-17_09-26-58
present,0.4,taber_compressed.wav,taber,babble_94.wav,koldbrand_reversed.wav,himmel_reversed.wav,62.0,z,0.6114909648895264,Miss,present,0.4,taber,taber_compressed.wav,1.232256513984482,7896.0,1.0,2025-11-17_09-26-58
present,0.3,spise_compressed.wav,spise,babble_39.wav,misbrug_reversed.wav,statue_reversed.wav,63.0,m,0.331496000289917,Hit,present,0.3,spise,spise_compressed.wav,0.9908142062020868,7896.0,1.0,2025-11-17_09-26-58
absent,0.7,SILENCE,,babble_94.wav,ferie_reversed.wav,redning_reversed.wav,64.0,z,0.6577808856964111,Correct Rejection,absent,0.7,,SILENCE,1.4511237892869862,7896.0,1.0,2025-11-17_09-26-58
absent,0.3,SILENCE,,babble_82.wav,fedme_reversed.wav,papir_reversed.wav,65.0,z,0.9149858951568604,Correct Rejection,absent,0.3,,SILENCE,1.4032650503965507,7896.0,1.0,2025-11-17_09-26-58
absent,0.4,SILENCE,,babble_89.wav,giftig_reversed.wav,kujon_reversed.wav,66.0,z,0.5748848915100098,Correct Rejection,absent,0.4,,SILENCE,0.9622946269457566,7896.0,1.0,2025-11-17_09-26-58
absent,0.2,SILENCE,,babble_15.wav,boble_reversed.wav,maling_reversed.wav,67.0,z,0.5170087814331055,Correct Rejection,absent,0.2,,SILENCE,1.4111497453919195,7896.0,1.0,2025-11-17_09-26-58
absent,0.3,SILENCE,,babble_1.wav,lampe_reversed.wav,slagtning_reversed.wav,68.0,z,1.6427738666534424,Correct Rejection,absent,0.3,,SILENCE,1.2640636678682142,7896.0,1.0,2025-11-17_09-26-58
absent,0.5,SILENCE,,babble_31.wav,taber_reversed.wav,luksus_reversed.wav,69.0,m,0.8709299564361572,False Alarm,absent,0.5,,SILENCE,0.7634805465101686,7896.0,1.0,2025-11-17_09-26-58
present,0.5,misbrug_compressed.wav,misbrug,babble_74.wav,giftig_reversed.wav,blodig_reversed.wav,70.0,z,0.8709719181060791,Miss,present,0.5,misbrug,misbrug_compressed.wav,0.9182386334109548,7896.0,1.0,2025-11-17_09-26-58
absent,0.5,SILENCE,,babble_38.wav,forpint_reversed.wav,rigdom_reversed.wav,71.0,z,0.7517750263214111,Correct Rejection,absent,0.5,,SILENCE,1.204349374899628,7896.0,1.0,2025-11-17_09-26-58
present,0.7,vindue_compressed.wav,vindue,babble_35.wav,gidsel_reversed.wav,vinde_reversed.wav,72.0,z,2.1376190185546875,Miss,present,0.7,vindue,vindue_compressed.wav,1.432719771214045,7896.0,1.0,2025-11-17_09-26-58
absent,0.6,SILENCE,,babble_31.wav,museum_reversed.wav,krise_reversed.wav,73.0,m,0.9343149662017822,False Alarm,absent,0.6,,SILENCE,0.94241036118489,7896.0,1.0,2025-11-17_09-26-58
absent,0.7,SILENCE,,babble_58.wav,ledning_reversed.wav,vindue_reversed.wav,74.0,z,1.0714688301086426,Correct Rejection,absent,0.7,,SILENCE,1.2192455222920262,7896.0,1.0,2025-11-17_09-26-58
present,0.7,musik_compressed.wav,musik,babble_45.wav,nedbrud_reversed.wav,grimme_reversed.wav,75.0,m,1.340698003768921,Hit,present,0.7,musik,musik_compressed.wav,0.937631078198976,7896.0,1.0,2025-11-17_09-26-58
absent,0.6,SILENCE,,babble_68.wav,feber_reversed.wav,taxa_reversed.wav,76.0,m,0.7037229537963867,False Alarm,absent,0.6,,SILENCE,1.0144709289490543,7896.0,1.0,2025-11-17_09-26-58
absent,0.2,SILENCE,,babble_80.wav,festlig_reversed.wav,lærer_reversed.wav,77.0,z,0.6069600582122803,Correct Rejection,absent,0.2,,SILENCE,0.954362445929506,7896.0,1.0,2025-11-17_09-26-58
present,0.4,afskyr_compressed.wav,afskyr,babble_15.wav,sollys_reversed.wav,drukne_reversed.wav,78.0,m,0.5148370265960693,Hit,present,0.4,afskyr,afskyr_compressed.wav,0.8291662173965841,7896.0,1.0,2025-11-17_09-26-58
present,0.7,viden_compressed.wav,viden,babble_49.wav,kugle_reversed.wav,blodig_reversed.wav,79.0,m,0.3868560791015625,Hit,present,0.7,viden,viden_compressed.wav,0.972415050913388,7896.0,1.0,2025-11-17_09-26-58
present,0.1,nonne_compressed.wav,nonne,babble_76.wav,spise_reversed.wav,sandhed_reversed.wav,80.0,m,0.5349900722503662,Hit,present,0.1,nonne,nonne_compressed.wav,0.5112697861885188,7896.0,1.0,2025-11-17_09-26-58
present,0.1,taber_compressed.wav,taber,babble_79.wav,skade_reversed.wav,forfald_reversed.wav,81.0,m,0.4314777851104736,Hit,present,0.1,taber,taber_compressed.wav,1.4713498358464288,7896.0,1.0,2025-11-17_09-26-58
present,0.1,pude_compressed.wav,pude,babble_68.wav,regnbue_reversed.wav,sæde_reversed.wav,82.0,m,0.3290619850158691,Hit,present,0.1,pude,pude_compressed.wav,1.3271037583311251,7896.0,1.0,2025-11-17_09-26-58
present,0.6,respekt_compressed.wav,respekt,babble_75.wav,marked_reversed.wav,ensom_reversed.wav,83.0,m,0.7549610137939453,Hit,present,0.6,respekt,respekt_compressed.wav,1.4891321839360017,7896.0,1.0,2025-11-17_09-26-58
absent,0.6,SILENCE,,babble_66.wav,banner_reversed.wav,mester_reversed.wav,84.0,z,0.6358928680419922,Correct Rejection,absent,0.6,,SILENCE,1.3898972302983488,7896.0,1.0,2025-11-17_09-26-58
present,0.6,redskab_compressed.wav,redskab,babble_36.wav,grusom_reversed.wav,ketchup_reversed.wav,85.0,m,0.537571907043457,Hit,present,0.6,redskab,redskab_compressed.wav,0.5294500147464045,7896.0,1.0,2025-11-17_09-26-58
absent,0.1,SILENCE,,babble_26.wav,poesi_reversed.wav,lyse_reversed.wav,86.0,z,0.7906391620635986,Correct Rejection,absent,0.1,,SILENCE,0.9863883945151304,7896.0,1.0,2025-11-17_09-26-58
present,0.1,forår_compressed.wav,forår,babble_62.wav,nedbrud_reversed.wav,glæde_reversed.wav,87.0,m,0.3377039432525635,Hit,present,0.1,forår,forår_compressed.wav,1.3340251033986013,7896.0,1.0,2025-11-17_09-26-58
absent,0.4,SILENCE,,babble_16.wav,tilfreds_reversed.wav,gidsel_reversed.wav,88.0,z,1.3529269695281982,Correct Rejection,absent,0.4,,SILENCE,1.1940763873483011,7896.0,1.0,2025-11-17_09-26-58
absent,0.1,SILENCE,,babble_22.wav,venlig_reversed.wav,latter_reversed.wav,89.0,z,0.9604201316833496,Correct Rejection,absent,0.1,,SILENCE,1.424658229336715,7896.0,1.0,2025-11-17_09-26-58
present,0.4,stjerne_compressed.wav,stjerne,babble_86.wav,pjece_reversed.wav,ledning_reversed.wav,90.0,m,0.3037159442901611,Hit,present,0.4,stjerne,stjerne_compressed.wav,0.5968715372456215,7896.0,1.0,2025-11-17_09-26-58
absent,0.4,SILENCE,,babble_72.wav,lærer_reversed.wav,kiste_reversed.wav,91.0,z,0.6695981025695801,Correct Rejection,absent,0.4,,SILENCE,0.6297869897844115,7896.0,1.0,2025-11-17_09-26-58
present,0.5,selvmord_compressed.wav,selvmord,babble_44.wav,affald_reversed.wav,varme_reversed.wav,92.0,m,0.7703878879547119,Hit,present,0.5,selvmord,selvmord_compressed.wav,1.4297988160865944,7896.0,1.0,2025-11-17_09-26-58
absent,0.1,SILENCE,,babble_85.wav,museum_reversed.wav,enhed_reversed.wav,93.0,z,0.3261809349060058,Correct Rejection,absent,0.1,,SILENCE,1.0978272330661776,7896.0,1.0,2025-11-17_09-26-58
absent,0.3,SILENCE,,babble_8.wav,heldig_reversed.wav,jubel_reversed.wav,94.0,m,0.798396110534668,False Alarm,absent,0.3,,SILENCE,1.0274998593579907,7896.0,1.0,2025-11-17_09-26-58
absent,0.2,SILENCE,,babble_38.wav,pjece_reversed.wav,modgang_reversed.wav,95.0,z,0.3768110275268554,Correct Rejection,absent,0.2,,SILENCE,1.4953405874892494,7896.0,1.0,2025-11-17_09-26-58
present,0.3,gade_compressed.wav,gade,babble_80.wav,morder_reversed.wav,misbrug_reversed.wav,96.0,m,0.5102858543395996,Hit,present,0.3,gade,gade_compressed.wav,0.9804031792862944,7896.0,1.0,2025-11-17_09-26-58
absent,0.3,SILENCE,,babble_10.wav,spænding_reversed.wav,festlig_reversed.wav,97.0,z,0.3535969257354736,Correct Rejection,absent,0.3,,SILENCE,1.3569229723490517,7896.0,1.0,2025-11-17_09-26-58
present,0.7,vinde_compressed.wav,vinde,babble_0.wav,magisk_reversed.wav,skyldig_reversed.wav,-1.0,m,38.25081205368042,Hit,present,0.7,vinde,vinde_compressed.wav,0.6236469485059434,1234.0,1.0,2025-11-28_15-53-01
absent,0.2,SILENCE,,babble_9.wav,grusom_reversed.wav,cirkel_reversed.wav,-1.0,z,1.9297020435333248,Correct Rejection,absent,0.2,,SILENCE,0.8495535361364975,1234.0,1.0,2025-11-28_15-53-01
present,0.5,hårnål_compressed.wav,hårnål,babble_23.wav,fængsel_reversed.wav,røver_reversed.wav,-1.0,m,2.2740261554718018,Hit,present,0.5,hårnål,hårnål_compressed.wav,1.4818552553760336,1234.0,1.0,2025-11-28_15-53-01
absent,0.7,SILENCE,,babble_36.wav,maling_reversed.wav,vandal_reversed.wav,-1.0,z,0.7319231033325195,Correct Rejection,absent,0.7,,SILENCE,0.956121208017508,1234.0,1.0,2025-11-28_15-53-01
present,0.3,diamant_compressed.wav,diamant,babble_40.wav,ønske_reversed.wav,accept_reversed.wav,-1.0,m,0.501054048538208,Hit,present,0.3,diamant,diamant_compressed.wav,0.6047885587903895,1234.0,1.0,2025-11-28_15-53-01
absent,0.5,SILENCE,,babble_28.wav,taber_reversed.wav,frihed_reversed.wav,-1.0,z,0.5806999206542969,Correct Rejection,absent,0.5,,SILENCE,1.1422892174775132,1234.0,1.0,2025-11-28_15-53-01
absent,0.4,SILENCE,,babble_11.wav,vandal_reversed.wav,affald_reversed.wav,-1.0,z,0.679034948348999,Correct Rejection,absent,0.4,,SILENCE,0.5913481108099866,1234.0,1.0,2025-11-28_15-53-01
absent,0.1,SILENCE,,babble_57.wav,sæde_reversed.wav,respekt_reversed.wav,-1.0,z,1.571331024169922,Correct Rejection,absent,0.1,,SILENCE,1.2616880778027133,1234.0,1.0,2025-11-28_15-53-01
present,0.4,kande_compressed.wav,kande,babble_48.wav,humor_reversed.wav,spise_reversed.wav,-1.0,m,1.0264229774475098,Hit,present,0.4,kande,kande_compressed.wav,1.1600587729545218,1234.0,1.0,2025-11-28_15-53-01
present,0.2,skyldig_compressed.wav,skyldig,babble_6.wav,skade_reversed.wav,lampe_reversed.wav,-1.0,z,0.6103658676147461,Miss,present,0.2,skyldig,skyldig_compressed.wav,0.6602034012391188,1234.0,1.0,2025-11-28_15-53-01
present,0.1,fremskridt_compressed.wav,fremskridt,babble_38.wav,poesi_reversed.wav,mave_reversed.wav,-1.0,m,0.4039409160614013,Hit,present,0.1,fremskridt,fremskridt_compressed.wav,1.0193527057510483,1234.0,1.0,2025-11-28_15-53-01
absent,0.6,SILENCE,,babble_43.wav,slagtning_reversed.wav,voldtægt_reversed.wav,-1.0,z,1.801621913909912,Correct Rejection,absent,0.6,,SILENCE,0.7359775834073294,1234.0,1.0,2025-11-28_15-53-01
present,0.6,papir_compressed.wav,papir,babble_76.wav,vinde_reversed.wav,slagtning_reversed.wav,-1.0,m,0.767287015914917,Hit,present,0.6,papir,papir_compressed.wav,1.4239676801377277,1234.0,1.0,2025-11-28_15-53-01
absent,0.3,SILENCE,,babble_9.wav,slagtning_reversed.wav,ugle_reversed.wav,-1.0,z,0.5920531749725342,Correct Rejection,absent,0.3,,SILENCE,1.4580353806099615,1234.0,1.0,2025-11-28_15-53-01
present,0.1,banner_compressed.wav,banner,babble_91.wav,venlig_reversed.wav,fiasko_reversed.wav,0.0,m,0.3274619579315185,Hit,present,0.1,banner,banner_compressed.wav,0.804701859945935,1234.0,1.0,2025-11-28_15-53-01
absent,0.7,SILENCE,,babble_73.wav,rådden_reversed.wav,slave_reversed.wav,1.0,z,0.3973419666290283,Correct Rejection,absent,0.7,,SILENCE,1.4357576290526106,1234.0,1.0,2025-11-28_15-53-01
absent,0.3,SILENCE,,babble_72.wav,gidsel_reversed.wav,marked_reversed.wav,2.0,z,0.4932508468627929,Correct Rejection,absent,0.3,,SILENCE,1.2534567032447077,1234.0,1.0,2025-11-28_15-53-01
present,0.4,sollys_compressed.wav,sollys,babble_32.wav,knude_reversed.wav,lærer_reversed.wav,3.0,m,0.3487839698791504,Hit,present,0.4,sollys,sollys_compressed.wav,1.1763871789481084,1234.0,1.0,2025-11-28_15-53-01
present,0.4,ankel_compressed.wav,ankel,babble_77.wav,pude_reversed.wav,ferie_reversed.wav,4.0,z,0.5307419300079346,Miss,present,0.4,ankel,ankel_compressed.wav,0.6729650967996625,1234.0,1.0,2025-11-28_15-53-01
present,0.5,leder_compressed.wav,leder,babble_83.wav,gidsel_reversed.wav,gave_reversed.wav,5.0,z,0.4127171039581299,Miss,present,0.5,leder,leder_compressed.wav,1.0101594660579023,1234.0,1.0,2025-11-28_15-53-01
absent,0.6,SILENCE,,babble_57.wav,fremskridt_reversed.wav,maling_reversed.wav,6.0,z,0.5560669898986816,Correct Rejection,absent,0.6,,SILENCE,1.4252267523170148,1234.0,1.0,2025-11-28_15-53-01
present,0.3,bifald_compressed.wav,bifald,babble_41.wav,vinde_reversed.wav,statue_reversed.wav,7.0,z,0.5886719226837158,Miss,present,0.3,bifald,bifald_compressed.wav,0.8466502859888032,1234.0,1.0,2025-11-28_15-53-01
present,0.2,marked_compressed.wav,marked,babble_46.wav,venlig_reversed.wav,fjendtlig_reversed.wav,8.0,z,1.1197450160980225,Miss,present,0.2,marked,marked_compressed.wav,1.0820811865533175,1234.0,1.0,2025-11-28_15-53-01
present,0.6,himlen_compressed.wav,himlen,babble_86.wav,opstemt_reversed.wav,albue_reversed.wav,9.0,m,0.3078160285949707,Hit,present,0.6,himlen,himlen_compressed.wav,0.770685311014861,1234.0,1.0,2025-11-28_15-53-01
present,0.7,forpint_compressed.wav,forpint,babble_91.wav,grimme_reversed.wav,forkert_reversed.wav,10.0,z,0.377147912979126,Miss,present,0.7,forpint,forpint_compressed.wav,0.65366688732768,1234.0,1.0,2025-11-28_15-53-01
present,0.6,spise_compressed.wav,spise,,,,,escape,157.16677498817444,,present,0.6,spise,spise_compressed.wav,1.4595440819379526,,,
present,0.5,flirte_compressed.wav,flirte,babble_83.wav,vinde_reversed.wav,kærtegn_reversed.wav,-1.0,z,1.8179969000048004,Miss,,,,,0.55359424419236,9123.0,1.0,2025-12-06_17-38-12
present,0.6,fase_compressed.wav,fase,babble_38.wav,borddug_reversed.wav,røver_reversed.wav,-1.0,z,1.4846466000308285,Miss,,,,,0.9958857154727636,9123.0,1.0,2025-12-06_17-38-12
absent,0.3,SILENCE,,babble_6.wav,viden_reversed.wav,latter_reversed.wav,-1.0,z,1.9129366999841293,Correct Rejection,,,,,0.6509822719226263,9123.0,1.0,2025-12-06_17-38-12
present,0.2,afskyr_compressed.wav,afskyr,babble_45.wav,luksus_reversed.wav,grusom_reversed.wav,-1.0,m,1.0589806999778375,Hit,,,,,1.0108286599810778,9123.0,1.0,2025-12-06_17-38-12
absent,0.5,SILENCE,,babble_51.wav,søsyg_reversed.wav,gaffel_reversed.wav,-1.0,z,2.099930799973663,Correct Rejection,,,,,1.2516826305658806,9123.0,1.0,2025-12-06_17-38-12
present,0.7,ledning_compressed.wav,ledning,babble_84.wav,fedme_reversed.wav,salat_reversed.wav,-1.0,z,1.6163539999979548,Miss,,,,,1.1383084043844875,9123.0,1.0,2025-12-06_17-38-12
absent,0.7,SILENCE,,babble_19.wav,sejre_reversed.wav,drukne_reversed.wav,-1.0,z,1.1826372999930754,Correct Rejection,,,,,0.8147093178271794,9123.0,1.0,2025-12-06_17-38-12
present,0.4,venlig_compressed.wav,venlig,babble_13.wav,fjendtlig_reversed.wav,humor_reversed.wav,-1.0,z,1.252869300020393,Miss,,,,,0.658635577410644,9123.0,1.0,2025-12-06_17-38-12
present,0.1,udskud_compressed.wav,udskud,babble_8.wav,spise_reversed.wav,baby_reversed.wav,-1.0,z,1.7462068000459112,Miss,,,,,1.430158756337171,9123.0,1.0,2025-12-06_17-38-12
absent,0.1,SILENCE,,babble_12.wav,viden_reversed.wav,rotte_reversed.wav,-1.0,z,1.346374000015203,Correct Rejection,,,,,0.5438064402882209,9123.0,1.0,2025-12-06_17-38-12
absent,0.6,SILENCE,,babble_58.wav,opstemt_reversed.wav,vinde_reversed.wav,-1.0,z,2.087812299956568,Correct Rejection,,,,,0.6408024609771629,9123.0,1.0,2025-12-06_17-38-12
absent,0.4,SILENCE,,babble_15.wav,hånlig_reversed.wav,bygning_reversed.wav,-1.0,z,1.5266300999792293,Correct Rejection,,,,,0.5548671427877673,9123.0,1.0,2025-12-06_17-38-12
absent,0.2,SILENCE,,babble_75.wav,skuffe_reversed.wav,nøgle_reversed.wav,-1.0,z,1.7613902000011876,Correct Rejection,,,,,1.2167648695360265,9123.0,1.0,2025-12-06_17-38-12
present,0.3,ærlig_compressed.wav,ærlig,babble_25.wav,himmel_reversed.wav,dæmon_reversed.wav,-1.0,m,1.064887100015767,Hit,,,,,1.4807753563479915,9123.0,1.0,2025-12-06_17-38-12
present,0.3,glæde_compressed.wav,glæde,babble_96.wav,taber_reversed.wav,sæde_reversed.wav,0.0,m,1.0200972000020556,Hit,,,,,0.5580413373379691,9123.0,1.0,2025-12-06_17-38-12
present,0.5,minder_compressed.wav,minder,babble_9.wav,voldtægt_reversed.wav,ensom_reversed.wav,1.0,m,1.0288903000182472,Hit,,,,,0.8723598822082159,9123.0,1.0,2025-12-06_17-38-12
present,0.3,putte_compressed.wav,putte,babble_71.wav,redning_reversed.wav,hånlig_reversed.wav,2.0,z,1.6064224000438116,Miss,,,,,1.4655071937010715,9123.0,1.0,2025-12-06_17-38-12
present,0.7,trussel_compressed.wav,trussel,babble_67.wav,oprør_reversed.wav,tilfreds_reversed.wav,3.0,m,0.848284599953331,Hit,,,,,0.7031505002427955,9123.0,1.0,2025-12-06_17-38-12
absent,0.4,SILENCE,,babble_85.wav,hage_reversed.wav,oprørt_reversed.wav,4.0,z,1.4428151000174694,Correct Rejection,,,,,0.9407626383459018,9123.0,1.0,2025-12-06_17-38-12
absent,0.3,SILENCE,,babble_83.wav,redning_reversed.wav,regnbue_reversed.wav,5.0,z,1.1373621000093408,Correct Rejection,,,,,1.109414866008282,9123.0,1.0,2025-12-06_17-38-12
present,0.3,ledning_compressed.wav,ledning,babble_74.wav,voldtægt_reversed.wav,maling_reversed.wav,6.0,m,0.710392499982845,Hit,,,,,0.7263886514606528,9123.0,1.0,2025-12-06_17-38-12
present,0.1,forkert_compressed.wav,forkert,babble_17.wav,ensom_reversed.wav,knude_reversed.wav,7.0,z,1.409931299975142,Miss,,,,,0.8621606641818989,9123.0,1.0,2025-12-06_17-38-12
absent,0.5,SILENCE,,babble_61.wav,finger_reversed.wav,brutal_reversed.wav,8.0,z,1.669824099983089,Correct Rejection,,,,,0.6080219623534018,9123.0,1.0,2025-12-06_17-38-12
absent,0.2,SILENCE,,babble_32.wav,borddug_reversed.wav,kugle_reversed.wav,9.0,z,1.0950321999844164,Correct Rejection,,,,,1.4674053573135253,9123.0,1.0,2025-12-06_17-38-12
present,0.2,koldbrand_compressed.wav,koldbrand,babble_18.wav,taber_reversed.wav,avis_reversed.wav,10.0,z,1.4305299000116063,Miss,,,,,1.3220540442164852,9123.0,1.0,2025-12-06_17-38-12
absent,0.6,SILENCE,,babble_37.wav,kujon_reversed.wav,salat_reversed.wav,11.0,z,1.7756628999486566,Correct Rejection,,,,,0.9533357558907036,9123.0,1.0,2025-12-06_17-38-12
absent,0.2,SILENCE,,babble_12.wav,utro_reversed.wav,jubel_reversed.wav,12.0,z,1.3092340000439435,Correct Rejection,,,,,0.6461871779811137,9123.0,1.0,2025-12-06_17-38-12
present,0.5,fedme_compressed.wav,fedme,babble_15.wav,forfald_reversed.wav,djævel_reversed.wav,13.0,z,1.0640814999933357,Miss,,,,,0.6123850399068858,9123.0,1.0,2025-12-06_17-38-12
absent,0.4,SILENCE,,babble_28.wav,spise_reversed.wav,konkurs_reversed.wav,14.0,z,1.179458300000988,Correct Rejection,,,,,0.5745367291429807,9123.0,1.0,2025-12-06_17-38-12
present,0.5,traume_compressed.wav,traume,babble_34.wav,nøgle_reversed.wav,viden_reversed.wav,15.0,z,1.443513099977281,Miss,,,,,1.3491034828969777,9123.0,1.0,2025-12-06_17-38-12
absent,0.7,SILENCE,,babble_79.wav,misbrug_reversed.wav,rådden_reversed.wav,16.0,z,3.1483756999950856,Correct Rejection,,,,,1.4539933620597163,9123.0,1.0,2025-12-06_17-38-12
absent,0.2,SILENCE,,babble_10.wav,fængsel_reversed.wav,mave_reversed.wav,17.0,z,1.621462800016161,Correct Rejection,,,,,1.4673551703206829,9123.0,1.0,2025-12-06_17-38-12
absent,0.1,SILENCE,,babble_44.wav,skammel_reversed.wav,banner_reversed.wav,18.0,z,1.7144410000182688,Correct Rejection,,,,,0.8143737516668759,9123.0,1.0,2025-12-06_17-38-12
absent,0.7,SILENCE,,babble_97.wav,smerte_reversed.wav,fremskridt_reversed.wav,19.0,z,1.5670109000056982,Correct Rejection,,,,,1.2188673808321948,9123.0,1.0,2025-12-06_17-38-12
present,0.1,vandal_compressed.wav,vandal,babble_42.wav,lærer_reversed.wav,nonsens_reversed.wav,20.0,z,1.8417120999656615,Miss,,,,,0.554936205679785,9123.0,1.0,2025-12-06_17-38-12
present,0.6,jubel_compressed.wav,jubel,babble_60.wav,skuffe_reversed.wav,passion_reversed.wav,21.0,z,1.623992000008002,Miss,,,,,0.6643800079473551,9123.0,1.0,2025-12-06_17-38-12
absent,0.1,SILENCE,,babble_18.wav,festlig_reversed.wav,rotte_reversed.wav,22.0,z,1.2747434999910183,Correct Rejection,,,,,1.4811781055718425,9123.0,1.0,2025-12-06_17-38-12
present,0.4,fængsel_compressed.wav,fængsel,babble_1.wav,banner_reversed.wav,museum_reversed.wav,23.0,z,1.3601171000045724,Miss,,,,,0.5209586543276662,9123.0,1.0,2025-12-06_17-38-12
absent,0.4,SILENCE,,babble_77.wav,bombe_reversed.wav,flirte_reversed.wav,24.0,z,1.3134271000162698,Correct Rejection,,,,,1.1228108515427544,9123.0,1.0,2025-12-06_17-38-12
present,0.1,ugle_compressed.wav,ugle,babble_43.wav,maling_reversed.wav,varme_reversed.wav,25.0,z,1.2680916000390423,Miss,,,,,0.6971792906844094,9123.0,1.0,2025-12-06_17-38-12
absent,0.7,SILENCE,,babble_14.wav,offer_reversed.wav,giftig_reversed.wav,26.0,m,2.5839019999839365,False Alarm,,,,,1.1640095371149144,9123.0,1.0,2025-12-06_17-38-12
absent,0.6,SILENCE,,babble_8.wav,ledning_reversed.wav,sandhed_reversed.wav,27.0,z,1.1760520999669095,Correct Rejection,,,,,1.202504878651523,9123.0,1.0,2025-12-06_17-38-12
absent,0.2,SILENCE,,babble_40.wav,oprørt_reversed.wav,skyldig_reversed.wav,28.0,z,1.8960067000007257,Correct Rejection,,,,,1.1290149322385308,9123.0,1.0,2025-12-06_17-38-12
present,0.6,penge_compressed.wav,penge,babble_3.wav,frygtsom_reversed.wav,sikker_reversed.wav,29.0,m,1.205266200006008,Hit,,,,,1.3232667877078508,9123.0,1.0,2025-12-06_17-38-12
absent,0.4,SILENCE,,babble_30.wav,pude_reversed.wav,sikker_reversed.wav,30.0,z,1.0727977000060491,Correct Rejection,,,,,0.6780718867658414,9123.0,1.0,2025-12-06_17-38-12
absent,0.1,SILENCE,,babble_17.wav,hader_reversed.wav,konge_reversed.wav,31.0,z,1.0279014999978244,Correct Rejection,,,,,1.1057413504884677,9123.0,1.0,2025-12-06_17-38-12
present,0.2,intim_compressed.wav,intim,babble_57.wav,taxa_reversed.wav,lækker_reversed.wav,32.0,z,1.3446817999938503,Miss,,,,,0.88447485986975,9123.0,1.0,2025-12-06_17-38-12
absent,0.5,SILENCE,,babble_45.wav,sollys_reversed.wav,luksus_reversed.wav,33.0,z,1.7898295000195503,Correct Rejection,,,,,0.91682927876644,9123.0,1.0,2025-12-06_17-38-12
present,0.1,taber_compressed.wav,taber,babble_18.wav,gaffel_reversed.wav,ørken_reversed.wav,34.0,m,1.3541884000296704,Hit,,,,,0.9321116939120148,9123.0,1.0,2025-12-06_17-38-12
present,0.3,kujon_compressed.wav,kujon,babble_56.wav,affald_reversed.wav,metal_reversed.wav,35.0,m,1.3122086999937892,Hit,,,,,0.6881748199085927,9123.0,1.0,2025-12-06_17-38-12
absent,0.6,SILENCE,,babble_63.wav,utro_reversed.wav,poesi_reversed.wav,36.0,z,1.0987584000104107,Correct Rejection,,,,,0.8782997310103774,9123.0,1.0,2025-12-06_17-38-12
present,0.2,heldig_compressed.wav,heldig,babble_50.wav,slagtning_reversed.wav,rabies_reversed.wav,37.0,z,1.240042399964295,Miss,,,,,1.0543163325075553,9123.0,1.0,2025-12-06_17-38-12
present,0.3,ferie_compressed.wav,ferie,babble_14.wav,trofæ_reversed.wav,redskab_reversed.wav,38.0,z,1.7998066999716684,Miss,,,,,1.2681265081467004,9123.0,1.0,2025-12-06_17-38-12
present,0.4,hjerte_compressed.wav,hjerte,babble_59.wav,latter_reversed.wav,hånlig_reversed.wav,39.0,z,1.310908199986443,Miss,,,,,0.8364122445473247,9123.0,1.0,2025-12-06_17-38-12
absent,0.5,SILENCE,,babble_59.wav,baby_reversed.wav,kedel_reversed.wav,40.0,z,1.2692485000006857,Correct Rejection,,,,,0.8679806135156147,9123.0,1.0,2025-12-06_17-38-12
present,0.3,skuffe_compressed.wav,skuffe,babble_81.wav,poesi_reversed.wav,fjollet_reversed.wav,41.0,z,1.636680299998261,Miss,,,,,0.5159346421312963,9123.0,1.0,2025-12-06_17-38-12
absent,0.3,SILENCE,,babble_65.wav,fjollet_reversed.wav,brutal_reversed.wav,42.0,z,1.3668256999808364,Correct Rejection,,,,,1.4528458875414438,9123.0,1.0,2025-12-06_17-38-12
present,0.4,kæle_compressed.wav,kæle,babble_22.wav,borddug_reversed.wav,borddug_reversed.wav,43.0,z,1.2761220000102185,Miss,,,,,1.1841285997403848,9123.0,1.0,2025-12-06_17-38-12
present,0.6,lærer_compressed.wav,lærer,babble_14.wav,sandhed_reversed.wav,ankel_reversed.wav,44.0,m,1.1681809999863615,Hit,,,,,1.0092648294695237,9123.0,1.0,2025-12-06_17-38-12
present,0.6,cirkus_compressed.wav,cirkus,babble_74.wav,opstemt_reversed.wav,ugle_reversed.wav,45.0,m,1.333951899956446,Hit,,,,,0.9416810958585956,9123.0,1.0,2025-12-06_17-38-12
present,0.6,bifald_compressed.wav,bifald,babble_38.wav,feber_reversed.wav,respekt_reversed.wav,46.0,z,1.4264188999659382,Miss,,,,,0.6132272692714891,9123.0,1.0,2025-12-06_17-38-12
absent,0.5,SILENCE,,babble_7.wav,genstand_reversed.wav,utro_reversed.wav,47.0,z,0.9930452000116928,Correct Rejection,,,,,0.5512665056484285,9123.0,1.0,2025-12-06_17-38-12
absent,0.4,SILENCE,,babble_15.wav,regnbue_reversed.wav,tortur_reversed.wav,48.0,z,0.9867956000380218,Correct Rejection,,,,,0.5732483210849189,9123.0,1.0,2025-12-06_17-38-12
absent,0.7,SILENCE,,babble_27.wav,blodig_reversed.wav,fiasko_reversed.wav,49.0,z,0.9700643000542186,Correct Rejection,,,,,1.3262027539583945,9123.0,1.0,2025-12-06_17-38-12
absent,0.5,SILENCE,,babble_6.wav,maling_reversed.wav,væmmes_reversed.wav,50.0,z,1.562712500046473,Correct Rejection,,,,,0.582149986611887,9123.0,1.0,2025-12-06_17-38-12
present,0.7,fiasko_compressed.wav,fiasko,babble_73.wav,boble_reversed.wav,enhed_reversed.wav,51.0,z,0.7095697000040673,Miss,,,,,0.9588905016985216,9123.0,1.0,2025-12-06_17-38-12
absent,0.6,SILENCE,,babble_59.wav,salat_reversed.wav,ørken_reversed.wav,52.0,z,0.9185160999768414,Correct Rejection,,,,,1.1489717553828995,9123.0,1.0,2025-12-06_17-38-12
present,0.5,blodig_compressed.wav,blodig,babble_66.wav,skammel_reversed.wav,banner_reversed.wav,53.0,z,0.6651426999596879,Miss,,,,,1.0599607073639037,9123.0,1.0,2025-12-06_17-38-12
absent,0.3,SILENCE,,babble_96.wav,banner_reversed.wav,dæmon_reversed.wav,54.0,z,0.9239223999902606,Correct Rejection,,,,,1.03158302255939,9123.0,1.0,2025-12-06_17-38-12
absent,0.1,SILENCE,,babble_57.wav,blomstre_reversed.wav,spise_reversed.wav,55.0,z,0.953620799991768,Correct Rejection,,,,,0.981445489114763,9123.0,1.0,2025-12-06_17-38-12
present,0.1,fjendtlig_compressed.wav,fjendtlig,babble_2.wav,magisk_reversed.wav,ketchup_reversed.wav,56.0,m,2.006426600040868,Hit,,,,,1.3078502087187276,9123.0,1.0,2025-12-06_17-38-12
present,0.2,dæmpet_compressed.wav,dæmpet,babble_3.wav,kedel_reversed.wav,dæmon_reversed.wav,57.0,m,1.836207399959676,Hit,,,,,0.6732641810294758,9123.0,1.0,2025-12-06_17-38-12
absent,0.2,SILENCE,,babble_60.wav,venlig_reversed.wav,ønske_reversed.wav,58.0,z,1.0252744000172245,Correct Rejection,,,,,1.0890563950230103,9123.0,1.0,2025-12-06_17-38-12
absent,0.7,SILENCE,,babble_83.wav,tilfreds_reversed.wav,slave_reversed.wav,59.0,z,1.4770180999767035,Correct Rejection,,,,,0.7124522968014495,9123.0,1.0,2025-12-06_17-38-12
present,0.2,frygtsom_compressed.wav,frygtsom,babble_6.wav,røver_reversed.wav,avis_reversed.wav,60.0,z,1.775798599992413,Miss,,,,,0.6218413375848624,9123.0,1.0,2025-12-06_17-38-12
present,0.7,ørken_compressed.wav,ørken,babble_83.wav,genert_reversed.wav,misbrug_reversed.wav,61.0,z,0.9608396000112408,Miss,,,,,0.6416698119672019,9123.0,1.0,2025-12-06_17-38-12
absent,0.3,SILENCE,,babble_70.wav,kiste_reversed.wav,grimme_reversed.wav,62.0,z,1.0009363000281155,Correct Rejection,,,,,0.500699129111752,9123.0,1.0,2025-12-06_17-38-12
present,0.4,taxa_compressed.wav,taxa,babble_37.wav,bange_reversed.wav,beskidt_reversed.wav,63.0,z,1.1681466000154614,Miss,,,,,0.5136237572764583,9123.0,1.0,2025-12-06_17-38-12
absent,0.1,SILENCE,,babble_13.wav,gratis_reversed.wav,rotte_reversed.wav,64.0,z,1.0297072000103071,Correct Rejection,,,,,1.129948652829496,9123.0,1.0,2025-12-06_17-38-12
present,0.7,lærer_compressed.wav,lærer,babble_56.wav,mester_reversed.wav,maling_reversed.wav,65.0,z,1.232208699977491,Miss,,,,,0.6790830618993153,9123.0,1.0,2025-12-06_17-38-12
present,0.1,baby_compressed.wav,baby,babble_80.wav,pervers_reversed.wav,bifald_reversed.wav,66.0,z,1.2662845000158995,Miss,,,,,1.072323633819238,9123.0,1.0,2025-12-06_17-38-12
present,0.7,gaffel_compressed.wav,gaffel,babble_52.wav,bygning_reversed.wav,fjendtlig_reversed.wav,67.0,z,1.8507693000137808,Miss,,,,,0.65311972822771,9123.0,1.0,2025-12-06_17-38-12
absent,0.7,SILENCE,,babble_58.wav,forfald_reversed.wav,konge_reversed.wav,68.0,z,1.1212368000415154,Correct Rejection,,,,,0.9204468461210028,9123.0,1.0,2025-12-06_17-38-12
absent,0.2,SILENCE,,babble_86.wav,rådden_reversed.wav,flirte_reversed.wav,69.0,z,1.1272948000114411,Correct Rejection,,,,,0.5991653802955591,9123.0,1.0,2025-12-06_17-38-12
absent,0.6,SILENCE,,babble_28.wav,ørken_reversed.wav,sæde_reversed.wav,70.0,z,1.598157100030221,Correct Rejection,,,,,1.216253375996931,9123.0,1.0,2025-12-06_17-38-12
present,0.3,plakat_compressed.wav,plakat,babble_32.wav,oprør_reversed.wav,skuffe_reversed.wav,71.0,z,1.6652378999860955,Miss,,,,,0.9422136130294192,9123.0,1.0,2025-12-06_17-38-12
present,0.5,musik_compressed.wav,musik,babble_12.wav,statue_reversed.wav,smerte_reversed.wav,72.0,m,0.9151279000216164,Hit,,,,,0.669659313745959,9123.0,1.0,2025-12-06_17-38-12
present,0.6,sexet_compressed.wav,sexet,babble_74.wav,bygning_reversed.wav,kujon_reversed.wav,73.0,z,1.0456208999967205,Miss,,,,,1.268909253998301,9123.0,1.0,2025-12-06_17-38-12
present,0.1,illoyal_compressed.wav,illoyal,babble_58.wav,humor_reversed.wav,pervers_reversed.wav,74.0,m,0.9723086000303738,Hit,,,,,1.4858315865452636,9123.0,1.0,2025-12-06_17-38-12
absent,0.7,SILENCE,,babble_26.wav,røver_reversed.wav,fremskridt_reversed.wav,75.0,z,1.2286609999719076,Correct Rejection,,,,,0.8129787554039853,9123.0,1.0,2025-12-06_17-38-12
absent,0.5,SILENCE,,babble_29.wav,skuffe_reversed.wav,beskidt_reversed.wav,76.0,z,0.9049028999870644,Correct Rejection,,,,,0.9779655139696511,9123.0,1.0,2025-12-06_17-38-12
present,0.7,rådden_compressed.wav,rådden,babble_95.wav,frygtsom_reversed.wav,nonne_reversed.wav,77.0,z,0.931697299994994,Miss,,,,,0.6415974374963266,9123.0,1.0,2025-12-06_17-38-12
absent,0.1,SILENCE,,babble_91.wav,drukne_reversed.wav,jubel_reversed.wav,78.0,z,1.3621074999682603,Correct Rejection,,,,,1.1772872373368002,9123.0,1.0,2025-12-06_17-38-12
present,0.7,fremskridt_compressed.wav,fremskridt,babble_50.wav,illoyal_reversed.wav,trofæ_reversed.wav,79.0,z,1.3160956000210715,Miss,,,,,1.2576865168035565,9123.0,1.0,2025-12-06_17-38-12
absent,0.1,SILENCE,,babble_19.wav,konkurs_reversed.wav,rigdom_reversed.wav,80.0,z,1.093408799963072,Correct Rejection,,,,,0.914484538629894,9123.0,1.0,2025-12-06_17-38-12
absent,0.6,SILENCE,,babble_82.wav,hader_reversed.wav,gratis_reversed.wav,81.0,z,1.61948949994985,Correct Rejection,,,,,0.5389141031789783,9123.0,1.0,2025-12-06_17-38-12
present,0.4,brutal_compressed.wav,brutal,babble_37.wav,fremskridt_reversed.wav,skammel_reversed.wav,82.0,z,1.9513213000027465,Miss,,,,,1.2547218126472452,9123.0,1.0,2025-12-06_17-38-12
absent,0.3,SILENCE,,babble_46.wav,hjerte_reversed.wav,kage_reversed.wav,83.0,z,0.8406175000127405,Correct Rejection,,,,,1.291495692150184,9123.0,1.0,2025-12-06_17-38-12
present,0.4,kontor_compressed.wav,kontor,babble_74.wav,beskidt_reversed.wav,sindssyg_reversed.wav,84.0,m,0.8405541000538506,Hit,,,,,0.615566814018359,9123.0,1.0,2025-12-06_17-38-12
present,0.2,ønske_compressed.wav,ønske,babble_89.wav,sandhed_reversed.wav,violin_reversed.wav,85.0,m,0.8472606999566779,Hit,,,,,1.3390143618714685,9123.0,1.0,2025-12-06_17-38-12
present,0.2,gaffel_compressed.wav,gaffel,babble_20.wav,slagtning_reversed.wav,røver_reversed.wav,86.0,m,0.8973515999969095,Hit,,,,,0.9536995179125926,9123.0,1.0,2025-12-06_17-38-12
absent,0.4,SILENCE,,babble_38.wav,taxa_reversed.wav,glæde_reversed.wav,87.0,z,0.8127366999979131,Correct Rejection,,,,,0.875283004118127,9123.0,1.0,2025-12-06_17-38-12
absent,0.2,SILENCE,,babble_11.wav,enhed_reversed.wav,ensom_reversed.wav,88.0,z,0.9497160000028088,Correct Rejection,,,,,0.9327233177783598,9123.0,1.0,2025-12-06_17-38-12
absent,0.4,SILENCE,,babble_27.wav,sejre_reversed.wav,frihed_reversed.wav,89.0,z,0.985674099996686,Correct Rejection,,,,,0.8803693056973171,9123.0,1.0,2025-12-06_17-38-12
present,0.6,skønhed_compressed.wav,skønhed,babble_17.wav,natur_reversed.wav,vindue_reversed.wav,90.0,z,0.8859261000179686,Miss,,,,,1.4788550275325545,9123.0,1.0,2025-12-06_17-38-12
present,0.5,søsyg_compressed.wav,søsyg,babble_58.wav,nedbrud_reversed.wav,banner_reversed.wav,91.0,z,1.141708999988623,Miss,,,,,0.8074632316624311,9123.0,1.0,2025-12-06_17-38-12
present,0.4,mester_compressed.wav,mester,babble_56.wav,himlen_reversed.wav,frygtsom_reversed.wav,92.0,m,1.1083596000098623,Hit,,,,,0.923097467938177,9123.0,1.0,2025-12-06_17-38-12
absent,0.6,SILENCE,,babble_50.wav,brutal_reversed.wav,bifald_reversed.wav,93.0,z,1.062961200019345,Correct Rejection,,,,,0.8890953484312094,9123.0,1.0,2025-12-06_17-38-12
present,0.5,tilfreds_compressed.wav,tilfreds,babble_24.wav,ensom_reversed.wav,sindssyg_reversed.wav,94.0,m,1.1012235000380317,Hit,,,,,1.1630150894417788,9123.0,1.0,2025-12-06_17-38-12
absent,0.3,SILENCE,,babble_75.wav,frihed_reversed.wav,ferie_reversed.wav,95.0,z,1.143169899994973,Correct Rejection,,,,,1.0022695383303817,9123.0,1.0,2025-12-06_17-38-12
absent,0.5,SILENCE,,babble_97.wav,slave_reversed.wav,sæde_reversed.wav,96.0,z,1.5884475999628194,Correct Rejection,,,,,1.0497986848919496,9123.0,1.0,2025-12-06_17-38-12
absent,0.3,SILENCE,,babble_19.wav,smerte_reversed.wav,opstemt_reversed.wav,97.0,z,1.846327899955213,Correct Rejection,,,,,0.7778565840755144,9123.0,1.0,2025-12-06_17-38-12
absent,0.5,SILENCE,,babble_68.wav,frihed_reversed.wav,skuffe_reversed.wav,-1.0,z,1.600355665999814,Correct Rejection,,,,,1.0850795556907231,6776.0,1.0,2025-12-04_14-30-51
present,0.6,dollar_compressed.wav,dollar,babble_89.wav,mave_reversed.wav,lampe_reversed.wav,-1.0,z,1.0368222920005792,Miss,,,,,0.9830720503462884,6776.0,1.0,2025-12-04_14-30-51
present,0.2,passion_compressed.wav,passion,babble_37.wav,ensom_reversed.wav,lærer_reversed.wav,-1.0,z,1.5254245840005751,Miss,,,,,1.3704148524010544,6776.0,1.0,2025-12-04_14-30-51
absent,0.2,SILENCE,,babble_89.wav,gidsel_reversed.wav,finger_reversed.wav,-1.0,z,1.2488150839999437,Correct Rejection,,,,,0.8457961396873885,6776.0,1.0,2025-12-04_14-30-51
absent,0.4,SILENCE,,babble_19.wav,gave_reversed.wav,finger_reversed.wav,-1.0,z,0.6014336670014018,Correct Rejection,,,,,1.2399691765933656,6776.0,1.0,2025-12-04_14-30-51
absent,0.7,SILENCE,,babble_81.wav,avis_reversed.wav,bygning_reversed.wav,-1.0,z,0.5702333330009424,Correct Rejection,,,,,1.3330206364253576,6776.0,1.0,2025-12-04_14-30-51
present,0.5,oprørt_compressed.wav,oprørt,babble_79.wav,regnbue_reversed.wav,pervers_reversed.wav,-1.0,z,0.6696922080009244,Miss,,,,,0.6639671815441998,6776.0,1.0,2025-12-04_14-30-51
present,0.3,jubel_compressed.wav,jubel,babble_38.wav,regnbue_reversed.wav,koldbrand_reversed.wav,-1.0,z,0.6225010410016694,Miss,,,,,0.9718764937685704,6776.0,1.0,2025-12-04_14-30-51
absent,0.6,SILENCE,,babble_96.wav,himmel_reversed.wav,trofæ_reversed.wav,-1.0,z,0.6137787079969712,Correct Rejection,,,,,0.6065367295030052,6776.0,1.0,2025-12-04_14-30-51
absent,0.3,SILENCE,,babble_97.wav,gidsel_reversed.wav,spænding_reversed.wav,-1.0,z,0.9670995000014956,Correct Rejection,,,,,1.0051469476925168,6776.0,1.0,2025-12-04_14-30-51
present,0.7,latter_compressed.wav,latter,babble_43.wav,genert_reversed.wav,drukne_reversed.wav,-1.0,z,0.5532497090025572,Miss,,,,,0.6345004674563459,6776.0,1.0,2025-12-04_14-30-51
absent,0.1,SILENCE,,babble_95.wav,konge_reversed.wav,misbrug_reversed.wav,-1.0,z,0.6397493340009532,Correct Rejection,,,,,1.3603513161242682,6776.0,1.0,2025-12-04_14-30-51
present,0.1,udskud_compressed.wav,udskud,babble_13.wav,sygdom_reversed.wav,kærtegn_reversed.wav,-1.0,z,1.0362409580011445,Miss,,,,,0.5632151935860585,6776.0,1.0,2025-12-04_14-30-51
present,0.4,engel_compressed.wav,engel,babble_67.wav,vandfald_reversed.wav,metal_reversed.wav,-1.0,z,1.3468860409993797,Miss,,,,,1.360630200822615,6776.0,1.0,2025-12-04_14-30-51
present,0.6,væmmes_compressed.wav,væmmes,babble_96.wav,boble_reversed.wav,utro_reversed.wav,0.0,z,0.7504485419995035,Miss,,,,,0.5083101223479501,6776.0,1.0,2025-12-04_14-30-51
present,0.3,kugle_compressed.wav,kugle,babble_80.wav,poesi_reversed.wav,borddug_reversed.wav,1.0,z,0.5423992079995514,Miss,,,,,1.470829934826979,6776.0,1.0,2025-12-04_14-30-51
absent,0.6,SILENCE,,babble_21.wav,ankel_reversed.wav,smerte_reversed.wav,2.0,z,0.9690348340009224,Correct Rejection,,,,,0.9717164004908692,6776.0,1.0,2025-12-04_14-30-51
absent,0.6,SILENCE,,babble_3.wav,modgang_reversed.wav,dæmpet_reversed.wav,3.0,z,0.727521999997407,Correct Rejection,,,,,0.8359426742609166,6776.0,1.0,2025-12-04_14-30-51
present,0.5,dollar_compressed.wav,dollar,babble_92.wav,sandhed_reversed.wav,misbrug_reversed.wav,4.0,z,0.7080134999996517,Miss,,,,,0.9471276876003394,6776.0,1.0,2025-12-04_14-30-51
present,0.7,viden_compressed.wav,viden,babble_93.wav,ledning_reversed.wav,ørken_reversed.wav,5.0,z,0.7309055829973659,Miss,,,,,1.0819306853826631,6776.0,1.0,2025-12-04_14-30-51
absent,0.4,SILENCE,,babble_22.wav,kande_reversed.wav,skuffe_reversed.wav,6.0,z,1.0665032920005617,Correct Rejection,,,,,0.6660618024211713,6776.0,1.0,2025-12-04_14-30-51
present,0.3,lærer_compressed.wav,lærer,babble_97.wav,kontor_reversed.wav,vandfald_reversed.wav,7.0,z,0.6575315420013794,Miss,,,,,1.3944619598222388,6776.0,1.0,2025-12-04_14-30-51
absent,0.5,SILENCE,,babble_33.wav,bifald_reversed.wav,magisk_reversed.wav,8.0,z,0.6580138329991314,Correct Rejection,,,,,1.21285117885129,6776.0,1.0,2025-12-04_14-30-51
absent,0.5,SILENCE,,babble_3.wav,sexet_reversed.wav,ørken_reversed.wav,9.0,z,1.0055746250000084,Correct Rejection,,,,,0.8389331006595843,6776.0,1.0,2025-12-04_14-30-51
absent,0.3,SILENCE,,babble_15.wav,genstand_reversed.wav,gave_reversed.wav,10.0,z,0.7872133749988279,Correct Rejection,,,,,0.5282859527284162,6776.0,1.0,2025-12-04_14-30-51
absent,0.7,SILENCE,,babble_68.wav,pervers_reversed.wav,konge_reversed.wav,11.0,z,0.6216060410006321,Correct Rejection,,,,,0.972510856646468,6776.0,1.0,2025-12-04_14-30-51
absent,0.2,SILENCE,,babble_35.wav,rabies_reversed.wav,redskab_reversed.wav,12.0,z,0.5801320419996046,Correct Rejection,,,,,1.2206855574463091,6776.0,1.0,2025-12-04_14-30-51
absent,0.6,SILENCE,,babble_81.wav,nonne_reversed.wav,skade_reversed.wav,13.0,z,1.13906529200176,Correct Rejection,,,,,1.0284922856329106,6776.0,1.0,2025-12-04_14-30-51
present,0.7,opstemt_compressed.wav,opstemt,babble_7.wav,magisk_reversed.wav,genert_reversed.wav,14.0,z,0.7646917499987467,Miss,,,,,1.340829253946919,6776.0,1.0,2025-12-04_14-30-51
present,0.4,varme_compressed.wav,varme,babble_85.wav,lærer_reversed.wav,pervers_reversed.wav,15.0,z,2.129488458998821,Miss,,,,,1.0333866316417168,6776.0,1.0,2025-12-04_14-30-51
absent,0.2,SILENCE,,babble_53.wav,voldtægt_reversed.wav,himmel_reversed.wav,16.0,z,1.4420485420014302,Correct Rejection,,,,,0.8519567864666832,6776.0,1.0,2025-12-04_14-30-51
absent,0.6,SILENCE,,babble_47.wav,varme_reversed.wav,violin_reversed.wav,17.0,z,1.23552354200001,Correct Rejection,,,,,0.5247533645130642,6776.0,1.0,2025-12-04_14-30-51
present,0.3,hårnål_compressed.wav,hårnål,babble_98.wav,metal_reversed.wav,lampe_reversed.wav,18.0,z,0.8419301670001005,Miss,,,,,0.7277529234595559,6776.0,1.0,2025-12-04_14-30-51
absent,0.1,SILENCE,,babble_28.wav,vindue_reversed.wav,krise_reversed.wav,19.0,z,0.9550962910034286,Correct Rejection,,,,,0.740113043673494,6776.0,1.0,2025-12-04_14-30-51
absent,0.7,SILENCE,,babble_58.wav,offer_reversed.wav,salat_reversed.wav,20.0,z,1.4635982500003593,Correct Rejection,,,,,0.7038377100115477,6776.0,1.0,2025-12-04_14-30-51
present,0.1,vindue_compressed.wav,vindue,babble_29.wav,sexet_reversed.wav,affald_reversed.wav,21.0,z,0.846573000002536,Miss,,,,,0.5812544526078368,6776.0,1.0,2025-12-04_14-30-51
present,0.1,misbrug_compressed.wav,misbrug,babble_78.wav,gave_reversed.wav,konge_reversed.wav,22.0,m,0.71947683399776,Hit,,,,,1.2738870792973025,6776.0,1.0,2025-12-04_14-30-51
absent,0.5,SILENCE,,babble_20.wav,humor_reversed.wav,ugle_reversed.wav,23.0,z,0.7545954169981997,Correct Rejection,,,,,1.2357250248440512,6776.0,1.0,2025-12-04_14-30-51
absent,0.2,SILENCE,,babble_73.wav,tilfreds_reversed.wav,violin_reversed.wav,24.0,z,0.5922664589998021,Correct Rejection,,,,,0.9673302602237848,6776.0,1.0,2025-12-04_14-30-51
absent,0.1,SILENCE,,babble_98.wav,ørken_reversed.wav,latter_reversed.wav,25.0,z,0.9449347079971632,Correct Rejection,,,,,1.2075500260269396,6776.0,1.0,2025-12-04_14-30-51
present,0.2,nøgle_compressed.wav,nøgle,babble_56.wav,slave_reversed.wav,ankel_reversed.wav,26.0,m,1.1015407920021971,Hit,,,,,0.8865644119443447,6776.0,1.0,2025-12-04_14-30-51
absent,0.3,SILENCE,,babble_37.wav,bifald_reversed.wav,sexet_reversed.wav,27.0,z,0.7247810419976304,Correct Rejection,,,,,0.8537862574143591,6776.0,1.0,2025-12-04_14-30-51
present,0.1,minder_compressed.wav,minder,babble_31.wav,fremskridt_reversed.wav,illoyal_reversed.wav,28.0,m,0.8475952499975392,Hit,,,,,0.8281749950136078,6776.0,1.0,2025-12-04_14-30-51
present,0.7,sæde_compressed.wav,sæde,babble_83.wav,cirkel_reversed.wav,selvmord_reversed.wav,29.0,z,0.6493472080001084,Miss,,,,,1.3585863468541142,6776.0,1.0,2025-12-04_14-30-51
absent,0.7,SILENCE,,babble_74.wav,redskab_reversed.wav,forkert_reversed.wav,30.0,z,0.6465624169977673,Correct Rejection,,,,,0.9987270608373988,6776.0,1.0,2025-12-04_14-30-51
absent,0.4,SILENCE,,babble_79.wav,lampe_reversed.wav,genstand_reversed.wav,31.0,z,0.8710380000011355,Correct Rejection,,,,,1.1050538890240815,6776.0,1.0,2025-12-04_14-30-51
absent,0.2,SILENCE,,babble_15.wav,vinde_reversed.wav,redning_reversed.wav,32.0,z,0.4776960839990352,Correct Rejection,,,,,0.9049353272007112,6776.0,1.0,2025-12-04_14-30-51
present,0.2,morder_compressed.wav,morder,babble_38.wav,ensom_reversed.wav,magisk_reversed.wav,33.0,z,0.4769659170015075,Miss,,,,,0.7405496431147685,6776.0,1.0,2025-12-04_14-30-51
present,0.4,kæle_compressed.wav,kæle,babble_91.wav,latter_reversed.wav,lærer_reversed.wav,34.0,z,0.7966601250009262,Miss,,,,,0.8732024913934922,6776.0,1.0,2025-12-04_14-30-51
present,0.5,skuffe_compressed.wav,skuffe,babble_62.wav,ankel_reversed.wav,nedbrud_reversed.wav,35.0,z,1.2413629590009805,Miss,,,,,0.710112035586483,6776.0,1.0,2025-12-04_14-30-51
present,0.5,avis_compressed.wav,avis,babble_17.wav,engel_reversed.wav,mester_reversed.wav,36.0,m,0.3547956660004274,Hit,,,,,0.6399725178230824,6776.0,1.0,2025-12-04_14-30-51
present,0.6,redning_compressed.wav,redning,babble_34.wav,lækker_reversed.wav,fiasko_reversed.wav,37.0,z,0.5126509580004495,Miss,,,,,0.7667985817124465,6776.0,1.0,2025-12-04_14-30-51
absent,0.5,SILENCE,,babble_7.wav,ugle_reversed.wav,diamant_reversed.wav,38.0,z,0.515176666998741,Correct Rejection,,,,,1.3963758308079526,6776.0,1.0,2025-12-04_14-30-51
absent,0.7,SILENCE,,babble_7.wav,trussel_reversed.wav,sejre_reversed.wav,39.0,z,0.5427472499977739,Correct Rejection,,,,,1.258797911453249,6776.0,1.0,2025-12-04_14-30-51
present,0.4,respekt_compressed.wav,respekt,babble_34.wav,lampe_reversed.wav,oprør_reversed.wav,40.0,z,1.1681293750007171,Miss,,,,,1.2071930663996029,6776.0,1.0,2025-12-04_14-30-51
absent,0.5,SILENCE,,babble_73.wav,boble_reversed.wav,bombe_reversed.wav,41.0,z,1.065695124998456,Correct Rejection,,,,,0.5129052969522869,6776.0,1.0,2025-12-04_14-30-51
absent,0.5,SILENCE,,babble_78.wav,kage_reversed.wav,krise_reversed.wav,42.0,z,0.8588116669998271,Correct Rejection,,,,,0.9010262426748884,6776.0,1.0,2025-12-04_14-30-51
absent,0.7,SILENCE,,babble_41.wav,grimme_reversed.wav,passion_reversed.wav,43.0,z,0.9787944999989122,Correct Rejection,,,,,1.299927474857921,6776.0,1.0,2025-12-04_14-30-51
present,0.2,succes_compressed.wav,succes,babble_57.wav,accept_reversed.wav,hader_reversed.wav,44.0,m,0.3873813329992117,Hit,,,,,0.899121213688833,6776.0,1.0,2025-12-04_14-30-51
absent,0.3,SILENCE,,babble_44.wav,frihed_reversed.wav,ledning_reversed.wav,45.0,z,0.4376502910017734,Correct Rejection,,,,,1.287750730497507,6776.0,1.0,2025-12-04_14-30-51
present,0.3,beundret_compressed.wav,beundret,babble_10.wav,koldbrand_reversed.wav,kujon_reversed.wav,46.0,m,0.3089800410016323,Hit,,,,,1.251199468636869,6776.0,1.0,2025-12-04_14-30-51
present,0.1,slagtning_compressed.wav,slagtning,babble_11.wav,hage_reversed.wav,fængsel_reversed.wav,47.0,m,1.161982875000831,Hit,,,,,1.4069440539731513,6776.0,1.0,2025-12-04_14-30-51
present,0.4,penge_compressed.wav,penge,babble_74.wav,nøgle_reversed.wav,rædsel_reversed.wav,48.0,z,0.585018666999531,Miss,,,,,0.7002491520630962,6776.0,1.0,2025-12-04_14-30-51
absent,0.3,SILENCE,,babble_83.wav,jubel_reversed.wav,hjerte_reversed.wav,49.0,z,1.0226881249982398,Correct Rejection,,,,,1.0571264171496342,6776.0,1.0,2025-12-04_14-30-51
present,0.5,pjece_compressed.wav,pjece,babble_70.wav,frihed_reversed.wav,brænde_reversed.wav,50.0,z,1.0486231249997218,Miss,,,,,0.5869392985820989,6776.0,1.0,2025-12-04_14-30-51
absent,0.1,SILENCE,,babble_5.wav,modgang_reversed.wav,natur_reversed.wav,51.0,z,0.5096385830001964,Correct Rejection,,,,,1.4513711737366028,6776.0,1.0,2025-12-04_14-30-51
absent,0.2,SILENCE,,babble_80.wav,sandhed_reversed.wav,modgang_reversed.wav,52.0,z,1.2325648330006516,Correct Rejection,,,,,0.7225242373499823,6776.0,1.0,2025-12-04_14-30-51
present,0.4,kage_compressed.wav,kage,babble_30.wav,fjollet_reversed.wav,konkurs_reversed.wav,53.0,m,0.3579303339975013,Hit,,,,,1.1940310536236185,6776.0,1.0,2025-12-04_14-30-51
present,0.5,slave_compressed.wav,slave,babble_65.wav,knude_reversed.wav,sikker_reversed.wav,54.0,z,0.538777082998422,Miss,,,,,1.476229252663219,6776.0,1.0,2025-12-04_14-30-51
absent,0.4,SILENCE,,babble_28.wav,magisk_reversed.wav,modgang_reversed.wav,55.0,z,1.0869782920017317,Correct Rejection,,,,,1.0253494080071754,6776.0,1.0,2025-12-04_14-30-51
present,0.2,giftig_compressed.wav,giftig,babble_8.wav,spænding_reversed.wav,røver_reversed.wav,56.0,z,0.7495780409990402,Miss,,,,,0.7119860016414177,6776.0,1.0,2025-12-04_14-30-51
present,0.7,himmel_compressed.wav,himmel,babble_51.wav,leder_reversed.wav,vandfald_reversed.wav,57.0,z,0.6216354169991973,Miss,,,,,0.774406666028667,6776.0,1.0,2025-12-04_14-30-51
present,0.7,hånlig_compressed.wav,hånlig,babble_64.wav,taber_reversed.wav,dollar_reversed.wav,58.0,z,0.7351436669996474,Miss,,,,,1.2387798122903997,6776.0,1.0,2025-12-04_14-30-51
present,0.4,skyldig_compressed.wav,skyldig,babble_69.wav,natur_reversed.wav,brænde_reversed.wav,59.0,z,0.4898065829984261,Miss,,,,,1.1466707389758908,6776.0,1.0,2025-12-04_14-30-51
absent,0.2,SILENCE,,babble_16.wav,sygdom_reversed.wav,gidsel_reversed.wav,60.0,z,1.362209000002622,Correct Rejection,,,,,1.3373005757258856,6776.0,1.0,2025-12-04_14-30-51
absent,0.2,SILENCE,,babble_99.wav,genert_reversed.wav,lækker_reversed.wav,61.0,z,0.6621618339995621,Correct Rejection,,,,,1.1067402225099,6776.0,1.0,2025-12-04_14-30-51
present,0.3,kiste_compressed.wav,kiste,babble_94.wav,himmel_reversed.wav,modgang_reversed.wav,62.0,z,0.8960312500021246,Miss,,,,,1.134848762862236,6776.0,1.0,2025-12-04_14-30-51
present,0.3,konkurs_compressed.wav,konkurs,babble_16.wav,giftig_reversed.wav,leder_reversed.wav,63.0,z,0.588342916998954,Miss,,,,,1.147077713552652,6776.0,1.0,2025-12-04_14-30-51
absent,0.3,SILENCE,,babble_57.wav,skammel_reversed.wav,taxa_reversed.wav,64.0,z,0.7176209579993156,Correct Rejection,,,,,1.26378711054292,6776.0,1.0,2025-12-04_14-30-51
absent,0.1,SILENCE,,babble_80.wav,gade_reversed.wav,gade_reversed.wav,65.0,z,0.5970439590018941,Correct Rejection,,,,,0.5886182761668919,6776.0,1.0,2025-12-04_14-30-51
present,0.6,oprørt_compressed.wav,oprørt,babble_82.wav,kærtegn_reversed.wav,affald_reversed.wav,66.0,z,1.1799269160001131,Miss,,,,,1.021741092333213,6776.0,1.0,2025-12-04_14-30-51
absent,0.1,SILENCE,,babble_71.wav,luksus_reversed.wav,mave_reversed.wav,67.0,z,0.4459425839995674,Correct Rejection,,,,,0.9825056546536384,6776.0,1.0,2025-12-04_14-30-51
present,0.6,enhed_compressed.wav,enhed,babble_67.wav,drukne_reversed.wav,metal_reversed.wav,68.0,m,1.4253439999993134,Hit,,,,,0.8118748623053644,6776.0,1.0,2025-12-04_14-30-51
absent,0.5,SILENCE,,babble_4.wav,fjollet_reversed.wav,albue_reversed.wav,69.0,z,1.5336874999993595,Correct Rejection,,,,,1.008679243129233,6776.0,1.0,2025-12-04_14-30-51
present,0.3,morder_compressed.wav,morder,babble_76.wav,blodig_reversed.wav,brænde_reversed.wav,70.0,z,1.2644383330007258,Miss,,,,,1.3337107845844698,6776.0,1.0,2025-12-04_14-30-51
present,0.7,kæle_compressed.wav,kæle,babble_11.wav,papir_reversed.wav,putte_reversed.wav,71.0,z,0.6688552079976944,Miss,,,,,1.36003375734815,6776.0,1.0,2025-12-04_14-30-51
absent,0.7,SILENCE,,babble_32.wav,skammel_reversed.wav,vindue_reversed.wav,72.0,z,0.4423894999999902,Correct Rejection,,,,,1.3256067958502316,6776.0,1.0,2025-12-04_14-30-51
absent,0.4,SILENCE,,babble_40.wav,lærer_reversed.wav,bifald_reversed.wav,73.0,z,1.069707250000647,Correct Rejection,,,,,0.973352016505204,6776.0,1.0,2025-12-04_14-30-51
absent,0.6,SILENCE,,babble_68.wav,dollar_reversed.wav,flirte_reversed.wav,74.0,z,0.8506619159998081,Correct Rejection,,,,,0.8184179535046955,6776.0,1.0,2025-12-04_14-30-51
present,0.6,knude_compressed.wav,knude,babble_83.wav,syndig_reversed.wav,festlig_reversed.wav,75.0,m,1.7847695419986849,Hit,,,,,1.2068988746353797,6776.0,1.0,2025-12-04_14-30-51
present,0.1,voldtægt_compressed.wav,voldtægt,babble_22.wav,bombe_reversed.wav,oprør_reversed.wav,76.0,m,0.6113116249980521,Hit,,,,,1.2149249031072324,6776.0,1.0,2025-12-04_14-30-51
present,0.2,taber_compressed.wav,taber,babble_3.wav,genert_reversed.wav,vandal_reversed.wav,77.0,m,0.525025541002833,Hit,,,,,0.9065695600629882,6776.0,1.0,2025-12-04_14-30-51
present,0.5,hader_compressed.wav,hader,babble_81.wav,leder_reversed.wav,trussel_reversed.wav,78.0,m,1.0320316670004104,Hit,,,,,1.4775582716900495,6776.0,1.0,2025-12-04_14-30-51
present,0.6,hage_compressed.wav,hage,babble_83.wav,hader_reversed.wav,luksus_reversed.wav,79.0,z,1.0631218339985935,Miss,,,,,0.9249779142780682,6776.0,1.0,2025-12-04_14-30-51
absent,0.1,SILENCE,,babble_2.wav,succes_reversed.wav,hage_reversed.wav,80.0,z,0.9395284590027586,Correct Rejection,,,,,1.4169336450981729,6776.0,1.0,2025-12-04_14-30-51
present,0.7,fremskridt_compressed.wav,fremskridt,babble_86.wav,flirte_reversed.wav,misbrug_reversed.wav,81.0,z,0.6040542920018197,Miss,,,,,1.3439313593875146,6776.0,1.0,2025-12-04_14-30-51
present,0.1,luder_compressed.wav,luder,babble_58.wav,stjerne_reversed.wav,djævel_reversed.wav,82.0,m,0.8726254169996537,Hit,,,,,1.4996361985297622,6776.0,1.0,2025-12-04_14-30-51
absent,0.6,SILENCE,,babble_33.wav,redning_reversed.wav,dæmon_reversed.wav,83.0,m,0.9525022080015332,False Alarm,,,,,0.7377168582047255,6776.0,1.0,2025-12-04_14-30-51
present,0.5,hårnål_compressed.wav,hårnål,babble_56.wav,motor_reversed.wav,papir_reversed.wav,84.0,z,0.973197874998732,Miss,,,,,0.5367974987967268,6776.0,1.0,2025-12-04_14-30-51
present,0.2,penge_compressed.wav,penge,babble_29.wav,giftig_reversed.wav,violin_reversed.wav,85.0,z,1.2831408329984697,Miss,,,,,0.7631860873704643,6776.0,1.0,2025-12-04_14-30-51
absent,0.1,SILENCE,,babble_54.wav,diamant_reversed.wav,flirte_reversed.wav,86.0,z,1.1294328330004646,Correct Rejection,,,,,1.2509593959879413,6776.0,1.0,2025-12-04_14-30-51
present,0.2,poesi_compressed.wav,poesi,babble_24.wav,plakat_reversed.wav,marked_reversed.wav,87.0,m,1.61810216700178,Hit,,,,,0.7227866636206394,6776.0,1.0,2025-12-04_14-30-51
absent,0.4,SILENCE,,babble_3.wav,tilfreds_reversed.wav,cirkel_reversed.wav,88.0,z,0.9688591670019376,Correct Rejection,,,,,1.1523113194375845,6776.0,1.0,2025-12-04_14-30-51
absent,0.6,SILENCE,,babble_3.wav,natur_reversed.wav,ønske_reversed.wav,89.0,z,0.97624341700066,Correct Rejection,,,,,1.269471344174496,6776.0,1.0,2025-12-04_14-30-51
absent,0.3,SILENCE,,babble_21.wav,slagtning_reversed.wav,ferie_reversed.wav,90.0,z,0.5502266669973324,Correct Rejection,,,,,0.8172233015434415,6776.0,1.0,2025-12-04_14-30-51
present,0.1,skade_compressed.wav,skade,babble_46.wav,smerte_reversed.wav,vandfald_reversed.wav,91.0,z,0.6370759589990485,Miss,,,,,0.6467750717527624,6776.0,1.0,2025-12-04_14-30-51
absent,0.4,SILENCE,,babble_20.wav,gaffel_reversed.wav,skuffe_reversed.wav,92.0,z,0.674694332999934,Correct Rejection,,,,,1.1255353538309372,6776.0,1.0,2025-12-04_14-30-51
present,0.6,mave_compressed.wav,mave,babble_2.wav,venlig_reversed.wav,statue_reversed.wav,93.0,z,0.7282068329986942,Miss,,,,,1.0183596977279523,6776.0,1.0,2025-12-04_14-30-51
absent,0.4,SILENCE,,babble_1.wav,accept_reversed.wav,finger_reversed.wav,94.0,z,1.3380370830018364,Correct Rejection,,,,,1.1161824677091463,6776.0,1.0,2025-12-04_14-30-51
absent,0.7,SILENCE,,babble_29.wav,kedel_reversed.wav,frygtsom_reversed.wav,95.0,z,0.5358897910009546,Correct Rejection,,,,,1.2674092248534086,6776.0,1.0,2025-12-04_14-30-51
absent,0.3,SILENCE,,babble_56.wav,albue_reversed.wav,lyse_reversed.wav,96.0,z,0.5835497080006462,Correct Rejection,,,,,0.960780515570516,6776.0,1.0,2025-12-04_14-30-51
present,0.4,skammel_compressed.wav,skammel,babble_52.wav,gidsel_reversed.wav,boble_reversed.wav,97.0,z,0.9346614589994716,Miss,,,,,1.354774003707884,6776.0,1.0,2025-12-04_14-30-51
