trial_i,prime_file,prime_valence,correct_word,distractor_word,babbling_file,mask1_file,mask2_file,practice.thisRepN,practice.thisTrialN,practice.thisN,practice.thisIndex,main.thisRepN,main.thisTrialN,main.thisN,main.thisIndex,response_key,rt,correct_key,accuracy,left_word,right_word,Participant ID,Session,date
19,rådden_compressed.wav,negative,rådden,tortur,babble_8.wav,fjendtlig_reversed.wav,ørken_reversed.wav,0.0,0.0,0.0,0.0,0,-1,-1,0,right,3.429183959960937,left,0,rådden,tortur,50701,1,2025-11-28_11-41-58
37,flirte_compressed.wav,positive,flirte,gratis,babble_27.wav,spise_reversed.wav,blodig_reversed.wav,0.0,1.0,1.0,1.0,0,-1,-1,0,right,1.7937138080596924,left,0,flirte,gratis,50701,1,2025-11-28_11-41-58
1,gaffel_compressed.wav,neutral,gaffel,brutal,babble_43.wav,rigdom_reversed.wav,kujon_reversed.wav,0.0,2.0,2.0,2.0,0,-1,-1,0,left,3.792627096176148,left,1,gaffel,brutal,50701,1,2025-11-28_11-41-58
60,væmmes_compressed.wav,negative,væmmes,maling,babble_33.wav,mave_reversed.wav,borddug_reversed.wav,0.0,3.0,3.0,3.0,0,-1,-1,0,left,3.4841699600219727,right,0,maling,væmmes,50701,1,2025-11-28_11-41-58
75,djævel_compressed.wav,negative,djævel,talent,babble_22.wav,maling_reversed.wav,pjece_reversed.wav,0.0,4.0,4.0,4.0,0,-1,-1,0,right,1.4332621097564695,right,1,talent,djævel,50701,1,2025-11-28_11-41-58
52,nonne_compressed.wav,neutral,nonne,kedel,babble_73.wav,ankel_reversed.wav,voldtægt_reversed.wav,,,,,0,0,0,0,right,1.42413592338562,right,1,kedel,nonne,50701,1,2025-11-28_11-41-58
81,skuffe_compressed.wav,negative,skuffe,redskab,babble_43.wav,mave_reversed.wav,diamant_reversed.wav,,,,,0,1,1,1,left,1.230679988861084,left,1,skuffe,redskab,50701,1,2025-11-28_11-41-58
12,jubel_compressed.wav,positive,jubel,kærtegn,babble_15.wav,fjendtlig_reversed.wav,lækker_reversed.wav,,,,,0,2,2,2,left,0.898219108581543,left,1,jubel,kærtegn,50701,1,2025-11-28_11-41-58
27,afskyr_compressed.wav,negative,afskyr,kæle,babble_47.wav,skyldig_reversed.wav,gave_reversed.wav,,,,,0,3,3,3,left,0.7692370414733887,left,1,afskyr,kæle,50701,1,2025-11-28_11-41-58
72,voldtægt_compressed.wav,negative,voldtægt,minder,babble_10.wav,lyse_reversed.wav,forfald_reversed.wav,,,,,0,4,4,4,right,0.716886043548584,right,1,minder,voldtægt,50701,1,2025-11-28_11-41-58
39,albue_compressed.wav,neutral,albue,væmmes,babble_75.wav,plakat_reversed.wav,gratis_reversed.wav,,,,,0,5,5,5,right,1.0840680599212646,right,1,væmmes,albue,50701,1,2025-11-28_11-41-58
45,cirkel_compressed.wav,neutral,cirkel,frihed,babble_64.wav,hånlig_reversed.wav,frihed_reversed.wav,,,,,0,6,6,6,left,0.4927871227264404,left,1,cirkel,frihed,50701,1,2025-11-28_11-41-58
29,kujon_compressed.wav,negative,kujon,kæle,babble_8.wav,sygdom_reversed.wav,regnbue_reversed.wav,,,,,0,7,7,7,right,1.7661230564117432,right,1,kæle,kujon,50701,1,2025-11-28_11-41-58
34,pervers_compressed.wav,negative,pervers,viden,babble_84.wav,lampe_reversed.wav,fængsel_reversed.wav,,,,,0,8,8,8,right,0.8955180644989014,right,1,viden,pervers,50701,1,2025-11-28_11-41-58
85,taber_compressed.wav,negative,taber,latter,babble_67.wav,kugle_reversed.wav,ledning_reversed.wav,,,,,0,9,9,9,right,1.681710958480835,right,1,latter,taber,50701,1,2025-11-28_11-41-58
64,albue_compressed.wav,neutral,albue,finger,babble_90.wav,vindue_reversed.wav,redning_reversed.wav,,,,,0,10,10,10,left,0.752587080001831,right,0,finger,albue,50701,1,2025-11-28_11-41-58
65,minder_compressed.wav,positive,minder,beskidt,babble_54.wav,lyse_reversed.wav,giftig_reversed.wav,,,,,0,11,11,11,right,0.5274579524993896,right,1,beskidt,minder,50701,1,2025-11-28_11-41-58
48,skuffe_compressed.wav,negative,skuffe,rådden,babble_95.wav,avis_reversed.wav,redskab_reversed.wav,,,,,0,12,12,12,right,2.1693899631500244,right,1,rådden,skuffe,50701,1,2025-11-28_11-41-58
84,sæde_compressed.wav,neutral,sæde,lærer,babble_86.wav,sikker_reversed.wav,kugle_reversed.wav,,,,,0,13,13,13,left,0.7431821823120117,left,1,sæde,lærer,50701,1,2025-11-28_11-41-58
68,kande_compressed.wav,neutral,kande,tumor,babble_90.wav,kedel_reversed.wav,albue_reversed.wav,,,,,0,14,14,14,left,1.7663869857788086,left,1,kande,tumor,50701,1,2025-11-28_11-41-58
36,minder_compressed.wav,positive,minder,syndig,babble_49.wav,forpint_reversed.wav,varme_reversed.wav,,,,,0,15,15,15,left,0.7891600131988525,left,1,minder,syndig,50701,1,2025-11-28_11-41-58
83,dæmon_compressed.wav,negative,dæmon,ønske,babble_13.wav,metal_reversed.wav,gaffel_reversed.wav,,,,,0,16,16,16,right,0.7771360874176025,right,1,ønske,dæmon,50701,1,2025-11-28_11-41-58
22,trofæ_compressed.wav,positive,trofæ,gave,babble_38.wav,gratis_reversed.wav,flirte_reversed.wav,,,,,0,17,17,17,left,1.291551113128662,left,1,trofæ,gave,50701,1,2025-11-28_11-41-58
38,modgang_compressed.wav,negative,modgang,kæle,babble_69.wav,fjendtlig_reversed.wav,ønske_reversed.wav,,,,,0,18,18,18,left,0.8396878242492676,left,1,modgang,kæle,50701,1,2025-11-28_11-41-58
69,museum_compressed.wav,neutral,museum,statue,babble_98.wav,fjendtlig_reversed.wav,magisk_reversed.wav,,,,,0,19,19,19,left,0.458730936050415,left,1,museum,statue,50701,1,2025-11-28_11-41-58
44,fase_compressed.wav,neutral,fase,taber,babble_70.wav,trussel_reversed.wav,avis_reversed.wav,,,,,0,20,20,20,left,0.7458181381225586,left,1,fase,taber,50701,1,2025-11-28_11-41-58
14,tønde_compressed.wav,neutral,tønde,beskidt,babble_51.wav,glæde_reversed.wav,kæle_reversed.wav,,,,,0,21,21,21,left,0.7646300792694092,left,1,tønde,beskidt,50701,1,2025-11-28_11-41-58
13,gaffel_compressed.wav,neutral,gaffel,kontor,babble_61.wav,varme_reversed.wav,viden_reversed.wav,,,,,0,22,22,22,left,0.7254199981689453,left,1,gaffel,kontor,50701,1,2025-11-28_11-41-58
54,banner_compressed.wav,neutral,banner,finger,babble_37.wav,bygning_reversed.wav,festlig_reversed.wav,,,,,0,23,23,23,right,1.3523991107940674,right,1,finger,banner,50701,1,2025-11-28_11-41-58
7,ydmyg_compressed.wav,neutral,ydmyg,viden,babble_99.wav,gade_reversed.wav,latter_reversed.wav,,,,,0,24,24,24,left,1.584022045135498,left,1,ydmyg,viden,50701,1,2025-11-28_11-41-58
46,venlig_compressed.wav,positive,venlig,enhed,babble_59.wav,brænde_reversed.wav,pude_reversed.wav,,,,,0,25,25,25,right,1.0655131340026855,right,1,enhed,venlig,50701,1,2025-11-28_11-41-58
67,taber_compressed.wav,negative,taber,flirte,babble_77.wav,drukne_reversed.wav,diamant_reversed.wav,,,,,0,26,26,26,left,1.313188076019287,left,1,taber,flirte,50701,1,2025-11-28_11-41-58
49,hånlig_compressed.wav,negative,hånlig,lækker,babble_77.wav,konge_reversed.wav,konkurs_reversed.wav,,,,,0,27,27,27,left,1.6428461074829102,left,1,hånlig,lækker,50701,1,2025-11-28_11-41-58
51,lækker_compressed.wav,positive,lækker,forår,babble_26.wav,rabies_reversed.wav,pervers_reversed.wav,,,,,0,28,28,28,left,0.5091390609741211,left,1,lækker,forår,50701,1,2025-11-28_11-41-58
82,skønhed_compressed.wav,positive,skønhed,avis,babble_2.wav,skammel_reversed.wav,skade_reversed.wav,,,,,0,29,29,29,left,0.845815896987915,left,1,skønhed,avis,50701,1,2025-11-28_11-41-58
28,redning_compressed.wav,positive,redning,luksus,babble_55.wav,måned_reversed.wav,trussel_reversed.wav,,,,,0,30,30,30,left,1.0424020290374756,left,1,redning,luksus,50701,1,2025-11-28_11-41-58
78,kande_compressed.wav,neutral,kande,vandfald,babble_52.wav,motor_reversed.wav,kiste_reversed.wav,,,,,0,31,31,31,right,1.2911078929901123,right,1,vandfald,kande,50701,1,2025-11-28_11-41-58
56,poesi_compressed.wav,neutral,poesi,hage,babble_81.wav,redning_reversed.wav,hånlig_reversed.wav,,,,,0,32,32,32,right,0.877722978591919,right,1,hage,poesi,50701,1,2025-11-28_11-41-58
6,pervers_compressed.wav,negative,pervers,heldig,babble_96.wav,tumor_reversed.wav,passion_reversed.wav,,,,,0,33,33,33,left,1.485840082168579,left,1,pervers,heldig,50701,1,2025-11-28_11-41-58
32,grimme_compressed.wav,negative,grimme,spise,babble_37.wav,glæde_reversed.wav,lyse_reversed.wav,,,,,0,34,34,34,left,1.4293930530548096,right,0,spise,grimme,50701,1,2025-11-28_11-41-58
62,kærtegn_compressed.wav,positive,kærtegn,taber,babble_51.wav,kontor_reversed.wav,himmel_reversed.wav,,,,,0,35,35,35,left,1.059554100036621,left,1,kærtegn,taber,50701,1,2025-11-28_11-41-58
17,kvæles_compressed.wav,negative,kvæles,knude,babble_24.wav,magisk_reversed.wav,taxa_reversed.wav,,,,,0,36,36,36,left,1.933670997619629,left,1,kvæles,knude,50701,1,2025-11-28_11-41-58
31,fjendtlig_compressed.wav,negative,fjendtlig,violin,babble_14.wav,offer_reversed.wav,motor_reversed.wav,,,,,0,37,37,37,right,2.094435930252075,right,1,violin,fjendtlig,50701,1,2025-11-28_11-41-58
20,statue_compressed.wav,neutral,statue,minder,babble_36.wav,forfald_reversed.wav,søsyg_reversed.wav,,,,,0,38,38,38,left,0.6349799633026123,left,1,statue,minder,50701,1,2025-11-28_11-41-58
10,humor_compressed.wav,positive,humor,vinde,babble_15.wav,talent_reversed.wav,nøgle_reversed.wav,,,,,0,39,39,39,right,0.4621820449829101,right,1,vinde,humor,50701,1,2025-11-28_11-41-58
89,gratis_compressed.wav,positive,gratis,dæmpet,babble_98.wav,ketchup_reversed.wav,spise_reversed.wav,,,,,0,40,40,40,right,1.4077398777008057,right,1,dæmpet,gratis,50701,1,2025-11-28_11-41-58
55,bifald_compressed.wav,positive,bifald,vandal,babble_68.wav,gaffel_reversed.wav,diamant_reversed.wav,,,,,0,41,41,41,left,1.827739953994751,left,1,bifald,vandal,50701,1,2025-11-28_11-41-58
9,kage_compressed.wav,positive,kage,enhed,babble_0.wav,hjerte_reversed.wav,traume_reversed.wav,,,,,0,42,42,42,right,1.1166257858276367,right,1,enhed,kage,50701,1,2025-11-28_11-41-58
18,salat_compressed.wav,neutral,salat,bombe,babble_49.wav,stjerne_reversed.wav,oprørt_reversed.wav,,,,,0,43,43,43,left,0.9966108798980712,left,1,salat,bombe,50701,1,2025-11-28_11-41-58
58,stjerne_compressed.wav,positive,stjerne,grusom,babble_63.wav,gaffel_reversed.wav,kontor_reversed.wav,,,,,0,44,44,44,right,1.267496109008789,right,1,grusom,stjerne,50701,1,2025-11-28_11-41-58
40,bombe_compressed.wav,negative,bombe,brutal,babble_34.wav,patent_reversed.wav,kedel_reversed.wav,,,,,0,45,45,45,left,1.234785079956055,left,1,bombe,brutal,50701,1,2025-11-28_11-41-58
24,gave_compressed.wav,positive,gave,hjerte,babble_50.wav,vindue_reversed.wav,gratis_reversed.wav,,,,,0,46,46,46,left,1.0889968872070312,left,1,gave,hjerte,50701,1,2025-11-28_11-41-58
23,pjece_compressed.wav,neutral,pjece,skønhed,babble_89.wav,djævel_reversed.wav,beskidt_reversed.wav,,,,,0,47,47,47,left,1.0397670269012451,left,1,pjece,skønhed,50701,1,2025-11-28_11-41-58
88,sandhed_compressed.wav,positive,sandhed,afskyr,babble_43.wav,voldtægt_reversed.wav,kugle_reversed.wav,,,,,0,48,48,48,left,1.803852081298828,left,1,sandhed,afskyr,50701,1,2025-11-28_11-41-58
86,marked_compressed.wav,neutral,marked,kontor,babble_88.wav,metal_reversed.wav,himlen_reversed.wav,,,,,0,49,49,49,left,0.7934131622314453,left,1,marked,kontor,50701,1,2025-11-28_11-41-58
80,slagtning_compressed.wav,negative,slagtning,rigdom,babble_53.wav,stjerne_reversed.wav,skammel_reversed.wav,,,,,0,50,50,50,right,1.2457070350646973,right,1,rigdom,slagtning,50701,1,2025-11-28_11-41-58
87,intim_compressed.wav,positive,intim,ledning,babble_32.wav,nedbrud_reversed.wav,offer_reversed.wav,,,,,0,51,51,51,left,0.76969313621521,left,1,intim,ledning,50701,1,2025-11-28_11-41-58
47,forår_compressed.wav,positive,forår,feber,babble_5.wav,viden_reversed.wav,lampe_reversed.wav,,,,,0,52,52,52,right,1.0578200817108154,right,1,feber,forår,50701,1,2025-11-28_11-41-58
35,motor_compressed.wav,neutral,motor,fængsel,babble_45.wav,motor_reversed.wav,patent_reversed.wav,,,,,0,53,53,53,right,1.0020570755004885,right,1,fængsel,motor,50701,1,2025-11-28_11-41-58
79,opstemt_compressed.wav,positive,opstemt,forfald,babble_99.wav,taber_reversed.wav,rådden_reversed.wav,,,,,0,54,54,54,right,1.2182228565216064,right,1,forfald,opstemt,50701,1,2025-11-28_11-41-58
4,metal_compressed.wav,neutral,metal,gratis,babble_44.wav,blomstre_reversed.wav,taber_reversed.wav,,,,,0,55,55,55,left,1.6717991828918457,right,0,gratis,metal,50701,1,2025-11-28_11-41-58
30,finger_compressed.wav,neutral,finger,fjendtlig,babble_72.wav,sandhed_reversed.wav,gave_reversed.wav,,,,,0,56,56,56,left,1.235534906387329,left,1,finger,fjendtlig,50701,1,2025-11-28_11-41-58
66,finger_compressed.wav,neutral,finger,konge,babble_28.wav,oprør_reversed.wav,fjendtlig_reversed.wav,,,,,0,57,57,57,right,1.3375399112701416,right,1,konge,finger,50701,1,2025-11-28_11-41-58
42,talent_compressed.wav,positive,talent,musik,babble_56.wav,grimme_reversed.wav,himmel_reversed.wav,,,,,0,58,58,58,left,0.7457869052886963,left,1,talent,musik,50701,1,2025-11-28_11-41-58
26,rotte_compressed.wav,negative,rotte,redning,babble_94.wav,skammel_reversed.wav,dollar_reversed.wav,,,,,0,59,59,59,right,2.292348146438598,right,1,redning,rotte,50701,1,2025-11-28_11-41-58
61,røver_compressed.wav,negative,røver,fjendtlig,babble_88.wav,genert_reversed.wav,grimme_reversed.wav,,,,,0,60,60,60,left,0.780580997467041,left,1,røver,fjendtlig,50701,1,2025-11-28_11-41-58
71,bygning_compressed.wav,neutral,bygning,affald,babble_62.wav,hånlig_reversed.wav,bifald_reversed.wav,,,,,0,61,61,61,right,0.5014328956604004,right,1,affald,bygning,50701,1,2025-11-28_11-41-58
76,vandal_compressed.wav,negative,vandal,morder,babble_79.wav,respekt_reversed.wav,talent_reversed.wav,,,,,0,62,62,62,left,1.024501085281372,left,1,vandal,morder,50701,1,2025-11-28_11-41-58
74,ensom_compressed.wav,negative,ensom,slagtning,babble_44.wav,vindue_reversed.wav,tortur_reversed.wav,,,,,0,63,63,63,left,0.539309024810791,left,1,ensom,slagtning,50701,1,2025-11-28_11-41-58
63,ære_compressed.wav,positive,ære,morder,babble_89.wav,banner_reversed.wav,væmmes_reversed.wav,,,,,0,64,64,64,right,1.7764759063720703,left,0,ære,morder,50701,1,2025-11-28_11-41-58
50,ankel_compressed.wav,neutral,ankel,ugle,babble_51.wav,selvmord_reversed.wav,vandal_reversed.wav,,,,,0,65,65,65,left,0.7814180850982666,left,1,ankel,ugle,50701,1,2025-11-28_11-41-58
33,diamant_compressed.wav,positive,diamant,lærer,babble_61.wav,trussel_reversed.wav,mave_reversed.wav,,,,,0,66,66,66,right,1.0675489902496338,right,1,lærer,diamant,50701,1,2025-11-28_11-41-58
15,ærlig_compressed.wav,positive,ærlig,flirte,babble_32.wav,boble_reversed.wav,lækker_reversed.wav,,,,,0,67,67,67,left,1.0562210083007812,left,1,ærlig,flirte,50701,1,2025-11-28_11-41-58
57,respekt_compressed.wav,positive,respekt,frelser,babble_81.wav,konge_reversed.wav,magisk_reversed.wav,,,,,0,68,68,68,right,0.606921911239624,right,1,frelser,respekt,50701,1,2025-11-28_11-41-58
53,stjerne_compressed.wav,positive,stjerne,slagtning,babble_7.wav,hånlig_reversed.wav,grimme_reversed.wav,,,,,0,69,69,69,left,0.5203101634979248,left,1,stjerne,slagtning,50701,1,2025-11-28_11-41-58
25,beskidt_compressed.wav,negative,beskidt,hjerte,babble_13.wav,glæde_reversed.wav,ankel_reversed.wav,,,,,0,70,70,70,left,0.8826308250427246,left,1,beskidt,hjerte,50701,1,2025-11-28_11-41-58
43,heldig_compressed.wav,positive,heldig,festlig,babble_86.wav,genert_reversed.wav,maling_reversed.wav,,,,,0,71,71,71,left,0.6340019702911377,left,1,heldig,festlig,50701,1,2025-11-28_11-41-58
16,bygning_compressed.wav,neutral,bygning,marked,babble_44.wav,museum_reversed.wav,finger_reversed.wav,,,,,0,72,72,72,left,0.4624102115631103,left,1,bygning,marked,50701,1,2025-11-28_11-41-58
59,motor_compressed.wav,neutral,motor,finger,babble_16.wav,himlen_reversed.wav,bombe_reversed.wav,,,,,0,73,73,73,left,0.4939260482788086,left,1,motor,finger,50701,1,2025-11-28_11-41-58
77,pervers_compressed.wav,negative,pervers,syndig,babble_43.wav,giftig_reversed.wav,skønhed_reversed.wav,,,,,0,74,74,74,left,0.7629649639129639,left,1,pervers,syndig,50701,1,2025-11-28_11-41-58
21,venlig_compressed.wav,positive,venlig,konkurs,babble_26.wav,taber_reversed.wav,illoyal_reversed.wav,,,,,0,75,75,75,right,2.7821898460388184,right,1,konkurs,venlig,50701,1,2025-11-28_11-41-58
11,tønde_compressed.wav,neutral,tønde,tumor,babble_69.wav,koldbrand_reversed.wav,illoyal_reversed.wav,,,,,0,76,76,76,left,1.052595853805542,left,1,tønde,tumor,50701,1,2025-11-28_11-41-58
90,hage_compressed.wav,neutral,hage,pjece,babble_75.wav,redskab_reversed.wav,dæmpet_reversed.wav,,,,,0,77,77,77,right,1.7508978843688965,right,1,pjece,hage,50701,1,2025-11-28_11-41-58
41,grimme_compressed.wav,negative,grimme,voldsom,babble_6.wav,vandfald_reversed.wav,regnbue_reversed.wav,,,,,0,78,78,78,left,0.6908729076385498,left,1,grimme,voldsom,50701,1,2025-11-28_11-41-58
73,bombe_compressed.wav,negative,bombe,venlig,babble_14.wav,kugle_reversed.wav,talent_reversed.wav,,,,,0,79,79,79,left,0.7878670692443848,left,1,bombe,venlig,50701,1,2025-11-28_11-41-58
2,forfald_compressed.wav,negative,forfald,dæmon,babble_53.wav,ensom_reversed.wav,fængsel_reversed.wav,,,,,0,80,80,80,left,1.2085139751434326,left,1,forfald,dæmon,50701,1,2025-11-28_11-41-58
3,glæde_compressed.wav,positive,glæde,humor,babble_20.wav,nedbrud_reversed.wav,væmmes_reversed.wav,,,,,0,81,81,81,right,0.9975600242614746,right,1,humor,glæde,50701,1,2025-11-28_11-41-58
5,nøgle_compressed.wav,neutral,nøgle,røver,babble_70.wav,ketchup_reversed.wav,smerte_reversed.wav,,,,,0,82,82,82,right,0.9137639999389648,right,1,røver,nøgle,50701,1,2025-11-28_11-41-58
70,heldig_compressed.wav,positive,heldig,voldsom,babble_41.wav,ugle_reversed.wav,nonsens_reversed.wav,,,,,0,83,83,83,left,0.9242258071899414,left,1,heldig,voldsom,50701,1,2025-11-28_11-41-58
8,brænde_compressed.wav,negative,brænde,affald,babble_49.wav,bygning_reversed.wav,respekt_reversed.wav,,,,,0,84,84,84,left,0.9978630542755128,left,1,brænde,affald,50701,1,2025-11-28_11-41-58
78,stjerne_compressed.wav,positive,stjerne,mester,babble_71.wav,putte_reversed.wav,vinde_reversed.wav,0.0,0.0,0.0,0.0,0,-1,-1,0,right,0.7285499572753906,right,1,mester,stjerne,6702,1,2025-11-24_10-57-48
75,nøgle_compressed.wav,neutral,nøgle,voldtægt,babble_25.wav,marked_reversed.wav,spise_reversed.wav,0.0,1.0,1.0,1.0,0,-1,-1,0,left,1.1913678646087646,left,1,nøgle,voldtægt,6702,1,2025-11-24_10-57-48
40,vandfald_compressed.wav,positive,vandfald,selvmord,babble_66.wav,gratis_reversed.wav,sikker_reversed.wav,0.0,2.0,2.0,2.0,0,-1,-1,0,left,2.615118980407715,right,0,selvmord,vandfald,6702,1,2025-11-24_10-57-48
69,borddug_compressed.wav,neutral,borddug,himlen,babble_46.wav,feber_reversed.wav,avis_reversed.wav,0.0,3.0,3.0,3.0,0,-1,-1,0,right,1.8767788410186768,right,1,himlen,borddug,6702,1,2025-11-24_10-57-48
26,taxa_compressed.wav,neutral,taxa,nedbrud,babble_24.wav,baby_reversed.wav,sindssyg_reversed.wav,0.0,4.0,4.0,4.0,0,-1,-1,0,left,1.061823844909668,left,1,taxa,nedbrud,6702,1,2025-11-24_10-57-48
8,accept_compressed.wav,positive,accept,baby,babble_21.wav,pude_reversed.wav,utro_reversed.wav,,,,,0,0,0,0,right,0.7404501438140869,right,1,baby,accept,6702,1,2025-11-24_10-57-48
10,illoyal_compressed.wav,negative,illoyal,syndig,babble_46.wav,succes_reversed.wav,glæde_reversed.wav,,,,,0,1,1,1,left,2.148344039916992,right,0,syndig,illoyal,6702,1,2025-11-24_10-57-48
77,redskab_compressed.wav,neutral,redskab,sandhed,babble_7.wav,trussel_reversed.wav,baby_reversed.wav,,,,,0,2,2,2,left,1.6037909984588623,left,1,redskab,sandhed,6702,1,2025-11-24_10-57-48
46,ære_compressed.wav,positive,ære,vinde,babble_36.wav,koldbrand_reversed.wav,opstemt_reversed.wav,,,,,0,3,3,3,left,1.6899960041046145,left,1,ære,vinde,6702,1,2025-11-24_10-57-48
32,marked_compressed.wav,neutral,marked,motor,babble_70.wav,trofæ_reversed.wav,misbrug_reversed.wav,,,,,0,4,4,4,right,0.8020949363708496,right,1,motor,marked,6702,1,2025-11-24_10-57-48
22,djævel_compressed.wav,negative,djævel,musik,babble_6.wav,giftig_reversed.wav,konge_reversed.wav,,,,,0,5,5,5,left,0.9483470916748048,left,1,djævel,musik,6702,1,2025-11-24_10-57-48
87,salat_compressed.wav,neutral,salat,accept,babble_62.wav,voldtægt_reversed.wav,væmmes_reversed.wav,,,,,0,6,6,6,left,0.6822609901428223,left,1,salat,accept,6702,1,2025-11-24_10-57-48
43,vinde_compressed.wav,positive,vinde,bombe,babble_48.wav,modgang_reversed.wav,slagtning_reversed.wav,,,,,0,7,7,7,left,1.6589670181274414,left,1,vinde,bombe,6702,1,2025-11-24_10-57-48
42,ære_compressed.wav,positive,ære,baby,babble_36.wav,plakat_reversed.wav,latter_reversed.wav,,,,,0,8,8,8,right,0.6754488945007324,right,1,baby,ære,6702,1,2025-11-24_10-57-48
47,knude_compressed.wav,neutral,knude,ketchup,babble_22.wav,feber_reversed.wav,blodig_reversed.wav,,,,,0,9,9,9,left,1.90123987197876,left,1,knude,ketchup,6702,1,2025-11-24_10-57-48
71,genert_compressed.wav,neutral,genert,museum,babble_88.wav,bange_reversed.wav,poesi_reversed.wav,,,,,0,10,10,10,right,0.5446250438690186,right,1,museum,genert,6702,1,2025-11-24_10-57-48
37,blodig_compressed.wav,negative,blodig,mester,babble_62.wav,konkurs_reversed.wav,lækker_reversed.wav,,,,,0,11,11,11,left,1.799407958984375,left,1,blodig,mester,6702,1,2025-11-24_10-57-48
1,djævel_compressed.wav,negative,djævel,genert,babble_16.wav,sexet_reversed.wav,kæle_reversed.wav,,,,,0,12,12,12,right,1.2751147747039795,right,1,genert,djævel,6702,1,2025-11-24_10-57-48
19,hånlig_compressed.wav,negative,hånlig,himlen,babble_19.wav,søsyg_reversed.wav,pervers_reversed.wav,,,,,0,13,13,13,right,1.7176339626312256,right,1,himlen,hånlig,6702,1,2025-11-24_10-57-48
52,traume_compressed.wav,negative,traume,lærer,babble_39.wav,grimme_reversed.wav,rotte_reversed.wav,,,,,0,14,14,14,right,0.9763460159301758,right,1,lærer,traume,6702,1,2025-11-24_10-57-48
24,motor_compressed.wav,neutral,motor,illoyal,babble_40.wav,grimme_reversed.wav,skuffe_reversed.wav,,,,,0,15,15,15,right,0.9495408535003662,right,1,illoyal,motor,6702,1,2025-11-24_10-57-48
57,gaffel_compressed.wav,neutral,gaffel,kedel,babble_33.wav,rabies_reversed.wav,sæde_reversed.wav,,,,,0,16,16,16,left,0.7533080577850342,left,1,gaffel,kedel,6702,1,2025-11-24_10-57-48
38,spise_compressed.wav,positive,spise,lampe,babble_4.wav,lyse_reversed.wav,nonsens_reversed.wav,,,,,0,17,17,17,left,0.8519940376281738,left,1,spise,lampe,6702,1,2025-11-24_10-57-48
17,intim_compressed.wav,positive,intim,penge,babble_60.wav,sejre_reversed.wav,ketchup_reversed.wav,,,,,0,18,18,18,right,0.3471741676330566,right,1,penge,intim,6702,1,2025-11-24_10-57-48
88,lækker_compressed.wav,positive,lækker,ferie,babble_85.wav,nøgle_reversed.wav,magisk_reversed.wav,,,,,0,19,19,19,left,1.3695390224456787,left,1,lækker,ferie,6702,1,2025-11-24_10-57-48
28,rabies_compressed.wav,negative,rabies,tortur,babble_41.wav,violin_reversed.wav,frihed_reversed.wav,,,,,0,20,20,20,right,1.969085931777954,left,0,rabies,tortur,6702,1,2025-11-24_10-57-48
21,banner_compressed.wav,neutral,banner,frygtsom,babble_41.wav,forfald_reversed.wav,poesi_reversed.wav,,,,,0,21,21,21,right,1.8446159362792969,right,1,frygtsom,banner,6702,1,2025-11-24_10-57-48
14,engel_compressed.wav,positive,engel,gave,babble_19.wav,mave_reversed.wav,fase_reversed.wav,,,,,0,22,22,22,right,1.9245760440826416,right,1,gave,engel,6702,1,2025-11-24_10-57-48
41,trofæ_compressed.wav,positive,trofæ,dæmpet,babble_93.wav,giftig_reversed.wav,slave_reversed.wav,,,,,0,23,23,23,left,1.486630916595459,left,1,trofæ,dæmpet,6702,1,2025-11-24_10-57-48
5,enhed_compressed.wav,neutral,enhed,oprørt,babble_84.wav,skyldig_reversed.wav,blodig_reversed.wav,,,,,0,24,24,24,right,1.137104034423828,right,1,oprørt,enhed,6702,1,2025-11-24_10-57-48
64,bombe_compressed.wav,negative,bombe,misbrug,babble_57.wav,taxa_reversed.wav,pervers_reversed.wav,,,,,0,25,25,25,left,2.6763179302215576,right,0,misbrug,bombe,6702,1,2025-11-24_10-57-48
34,frihed_compressed.wav,positive,frihed,lærer,babble_10.wav,plakat_reversed.wav,kæle_reversed.wav,,,,,0,26,26,26,left,0.5059809684753418,left,1,frihed,lærer,6702,1,2025-11-24_10-57-48
49,poesi_compressed.wav,neutral,poesi,nonne,babble_79.wav,fængsel_reversed.wav,nedbrud_reversed.wav,,,,,0,27,27,27,left,1.022658109664917,left,1,poesi,nonne,6702,1,2025-11-24_10-57-48
48,banner_compressed.wav,neutral,banner,violin,babble_47.wav,forkert_reversed.wav,drukne_reversed.wav,,,,,0,28,28,28,right,0.6808559894561768,right,1,violin,banner,6702,1,2025-11-24_10-57-48
15,drukne_compressed.wav,negative,drukne,sikker,babble_4.wav,statue_reversed.wav,trofæ_reversed.wav,,,,,0,29,29,29,right,1.7851669788360596,left,0,drukne,sikker,6702,1,2025-11-24_10-57-48
60,engel_compressed.wav,positive,engel,lyse,babble_19.wav,utro_reversed.wav,passion_reversed.wav,,,,,0,30,30,30,left,1.2579460144042969,left,1,engel,lyse,6702,1,2025-11-24_10-57-48
3,ensom_compressed.wav,negative,ensom,heldig,babble_3.wav,fiasko_reversed.wav,selvmord_reversed.wav,,,,,0,31,31,31,left,1.6707971096038818,left,1,ensom,heldig,6702,1,2025-11-24_10-57-48
72,vandal_compressed.wav,negative,vandal,rigdom,babble_28.wav,krise_reversed.wav,venlig_reversed.wav,,,,,0,32,32,32,right,2.182013988494873,right,1,rigdom,vandal,6702,1,2025-11-24_10-57-48
65,sexet_compressed.wav,positive,sexet,bygning,babble_39.wav,smerte_reversed.wav,boble_reversed.wav,,,,,0,33,33,33,left,1.0899269580841064,left,1,sexet,bygning,6702,1,2025-11-24_10-57-48
51,smerte_compressed.wav,negative,smerte,bombe,babble_48.wav,ugle_reversed.wav,mester_reversed.wav,,,,,0,34,34,34,right,0.8966331481933594,right,1,bombe,smerte,6702,1,2025-11-24_10-57-48
25,salat_compressed.wav,neutral,salat,natur,babble_8.wav,albue_reversed.wav,skønhed_reversed.wav,,,,,0,35,35,35,right,0.4958498477935791,right,1,natur,salat,6702,1,2025-11-24_10-57-48
62,kontor_compressed.wav,neutral,kontor,væmmes,babble_73.wav,spænding_reversed.wav,marked_reversed.wav,,,,,0,36,36,36,left,0.884915828704834,right,0,væmmes,kontor,6702,1,2025-11-24_10-57-48
16,borddug_compressed.wav,neutral,borddug,enhed,babble_64.wav,glæde_reversed.wav,motor_reversed.wav,,,,,0,37,37,37,right,0.921436071395874,right,1,enhed,borddug,6702,1,2025-11-24_10-57-48
30,afvist_compressed.wav,negative,afvist,statue,babble_1.wav,ugle_reversed.wav,redning_reversed.wav,,,,,0,38,38,38,right,0.6827549934387207,right,1,statue,afvist,6702,1,2025-11-24_10-57-48
45,konge_compressed.wav,positive,konge,hånlig,babble_35.wav,sikker_reversed.wav,putte_reversed.wav,,,,,0,39,39,39,left,1.162065029144287,left,1,konge,hånlig,6702,1,2025-11-24_10-57-48
66,kæle_compressed.wav,positive,kæle,banner,babble_12.wav,rotte_reversed.wav,konge_reversed.wav,,,,,0,40,40,40,left,1.3373498916625977,left,1,kæle,banner,6702,1,2025-11-24_10-57-48
11,sæde_compressed.wav,neutral,sæde,gade,babble_61.wav,enhed_reversed.wav,konge_reversed.wav,,,,,0,41,41,41,right,0.7232789993286133,right,1,gade,sæde,6702,1,2025-11-24_10-57-48
79,passion_compressed.wav,positive,passion,trussel,babble_46.wav,varme_reversed.wav,fjollet_reversed.wav,,,,,0,42,42,42,left,0.835533857345581,left,1,passion,trussel,6702,1,2025-11-24_10-57-48
39,kage_compressed.wav,positive,kage,udskud,babble_20.wav,tilfreds_reversed.wav,bombe_reversed.wav,,,,,0,43,43,43,right,1.0181021690368652,right,1,udskud,kage,6702,1,2025-11-24_10-57-48
23,skammel_compressed.wav,neutral,skammel,ære,babble_16.wav,flirte_reversed.wav,engel_reversed.wav,,,,,0,44,44,44,left,0.8406200408935547,left,1,skammel,ære,6702,1,2025-11-24_10-57-48
76,blodig_compressed.wav,negative,blodig,slagtning,babble_68.wav,skade_reversed.wav,sexet_reversed.wav,,,,,0,45,45,45,right,0.5074701309204102,right,1,slagtning,blodig,6702,1,2025-11-24_10-57-48
36,intim_compressed.wav,positive,intim,spænding,babble_28.wav,tortur_reversed.wav,blomstre_reversed.wav,,,,,0,46,46,46,left,0.6054670810699463,left,1,intim,spænding,6702,1,2025-11-24_10-57-48
55,himmel_compressed.wav,positive,himmel,slave,babble_81.wav,sæde_reversed.wav,redskab_reversed.wav,,,,,0,47,47,47,left,0.5811440944671631,left,1,himmel,slave,6702,1,2025-11-24_10-57-48
89,søsyg_compressed.wav,negative,søsyg,varme,babble_96.wav,vindue_reversed.wav,nøgle_reversed.wav,,,,,0,48,48,48,left,1.8317899703979488,left,1,søsyg,varme,6702,1,2025-11-24_10-57-48
80,pude_compressed.wav,positive,pude,sexet,babble_73.wav,sikker_reversed.wav,humor_reversed.wav,,,,,0,49,49,49,left,0.7636990547180176,left,1,pude,sexet,6702,1,2025-11-24_10-57-48
50,himmel_compressed.wav,positive,himmel,modgang,babble_86.wav,sandhed_reversed.wav,putte_reversed.wav,,,,,0,50,50,50,right,0.7630109786987305,right,1,modgang,himmel,6702,1,2025-11-24_10-57-48
56,fedme_compressed.wav,negative,fedme,sikker,babble_10.wav,ønske_reversed.wav,oprørt_reversed.wav,,,,,0,51,51,51,left,1.1296789646148682,left,1,fedme,sikker,6702,1,2025-11-24_10-57-48
6,taber_compressed.wav,negative,taber,redskab,babble_59.wav,ønske_reversed.wav,bombe_reversed.wav,,,,,0,52,52,52,left,2.135182857513428,left,1,taber,redskab,6702,1,2025-11-24_10-57-48
86,syndig_compressed.wav,negative,syndig,latter,babble_54.wav,rotte_reversed.wav,vandfald_reversed.wav,,,,,0,53,53,53,right,1.908708095550537,right,1,latter,syndig,6702,1,2025-11-24_10-57-48
31,fiasko_compressed.wav,negative,fiasko,latter,babble_51.wav,taber_reversed.wav,festlig_reversed.wav,,,,,0,54,54,54,right,0.9569921493530272,right,1,latter,fiasko,6702,1,2025-11-24_10-57-48
58,vindue_compressed.wav,neutral,vindue,søsyg,babble_48.wav,kontor_reversed.wav,poesi_reversed.wav,,,,,0,55,55,55,left,1.9459290504455569,left,1,vindue,søsyg,6702,1,2025-11-24_10-57-48
73,tønde_compressed.wav,neutral,tønde,metal,babble_49.wav,gratis_reversed.wav,slave_reversed.wav,,,,,0,56,56,56,left,1.193392038345337,left,1,tønde,metal,6702,1,2025-11-24_10-57-48
20,fjendtlig_compressed.wav,negative,fjendtlig,kærtegn,babble_69.wav,gaffel_reversed.wav,lyse_reversed.wav,,,,,0,57,57,57,right,1.803937911987305,left,0,fjendtlig,kærtegn,6702,1,2025-11-24_10-57-48
84,feber_compressed.wav,negative,feber,spise,babble_31.wav,genstand_reversed.wav,bombe_reversed.wav,,,,,0,58,58,58,left,1.6066269874572754,right,0,spise,feber,6702,1,2025-11-24_10-57-48
12,konge_compressed.wav,positive,konge,syndig,babble_10.wav,kontor_reversed.wav,voldtægt_reversed.wav,,,,,0,59,59,59,left,0.9182009696960448,left,1,konge,syndig,6702,1,2025-11-24_10-57-48
70,beskidt_compressed.wav,negative,beskidt,krise,babble_10.wav,fjendtlig_reversed.wav,modgang_reversed.wav,,,,,0,60,60,60,left,1.149691104888916,left,1,beskidt,krise,6702,1,2025-11-24_10-57-48
4,sindssyg_compressed.wav,negative,sindssyg,skuffe,babble_57.wav,dæmpet_reversed.wav,vindue_reversed.wav,,,,,0,61,61,61,right,1.0664010047912598,right,1,skuffe,sindssyg,6702,1,2025-11-24_10-57-48
53,albue_compressed.wav,neutral,albue,marked,babble_53.wav,feber_reversed.wav,spise_reversed.wav,,,,,0,62,62,62,left,1.1916420459747314,left,1,albue,marked,6702,1,2025-11-24_10-57-48
83,redning_compressed.wav,positive,redning,kujon,babble_40.wav,violin_reversed.wav,giftig_reversed.wav,,,,,0,63,63,63,left,3.10693097114563,right,0,kujon,redning,6702,1,2025-11-24_10-57-48
7,statue_compressed.wav,neutral,statue,ankel,babble_3.wav,poesi_reversed.wav,vandal_reversed.wav,,,,,0,64,64,64,left,1.579608917236328,left,1,statue,ankel,6702,1,2025-11-24_10-57-48
2,gade_compressed.wav,neutral,gade,feber,babble_19.wav,fiasko_reversed.wav,beskidt_reversed.wav,,,,,0,65,65,65,left,1.6851770877838137,left,1,gade,feber,6702,1,2025-11-24_10-57-48
63,respekt_compressed.wav,positive,respekt,hånlig,babble_32.wav,hjerte_reversed.wav,patent_reversed.wav,,,,,0,66,66,66,right,1.41205096244812,right,1,hånlig,respekt,6702,1,2025-11-24_10-57-48
18,skade_compressed.wav,negative,skade,udskud,babble_23.wav,gratis_reversed.wav,avis_reversed.wav,,,,,0,67,67,67,left,2.969491958618164,right,0,udskud,skade,6702,1,2025-11-24_10-57-48
9,lampe_compressed.wav,neutral,lampe,kontor,babble_71.wav,taxa_reversed.wav,redning_reversed.wav,,,,,0,68,68,68,left,0.592181921005249,left,1,lampe,kontor,6702,1,2025-11-24_10-57-48
82,misbrug_compressed.wav,negative,misbrug,luder,babble_22.wav,rabies_reversed.wav,finger_reversed.wav,,,,,0,69,69,69,right,0.407973051071167,right,1,luder,misbrug,6702,1,2025-11-24_10-57-48
74,offer_compressed.wav,negative,offer,vandfald,babble_85.wav,tumor_reversed.wav,fængsel_reversed.wav,,,,,0,70,70,70,left,0.7249431610107422,left,1,offer,vandfald,6702,1,2025-11-24_10-57-48
85,sindssyg_compressed.wav,negative,sindssyg,ønske,babble_37.wav,vinde_reversed.wav,fjollet_reversed.wav,,,,,0,71,71,71,right,0.388577938079834,right,1,ønske,sindssyg,6702,1,2025-11-24_10-57-48
59,kugle_compressed.wav,neutral,kugle,opstemt,babble_61.wav,nedbrud_reversed.wav,venlig_reversed.wav,,,,,0,72,72,72,left,1.0564360618591309,left,1,kugle,opstemt,6702,1,2025-11-24_10-57-48
35,viden_compressed.wav,positive,viden,fængsel,babble_75.wav,ugle_reversed.wav,tilfreds_reversed.wav,,,,,0,73,73,73,left,1.2425389289855957,right,0,fængsel,viden,6702,1,2025-11-24_10-57-48
33,hjerte_compressed.wav,positive,hjerte,marked,babble_79.wav,viden_reversed.wav,røver_reversed.wav,,,,,0,74,74,74,right,1.6310920715332031,left,0,hjerte,marked,6702,1,2025-11-24_10-57-48
44,tilfreds_compressed.wav,positive,tilfreds,spænding,babble_74.wav,vandal_reversed.wav,heldig_reversed.wav,,,,,0,75,75,75,right,1.045443058013916,right,1,spænding,tilfreds,6702,1,2025-11-24_10-57-48
13,forpint_compressed.wav,negative,forpint,fjendtlig,babble_40.wav,beskidt_reversed.wav,dæmpet_reversed.wav,,,,,0,76,76,76,left,0.9760499000549316,left,1,forpint,fjendtlig,6702,1,2025-11-24_10-57-48
81,koldbrand_compressed.wav,negative,koldbrand,finger,babble_81.wav,nonne_reversed.wav,papir_reversed.wav,,,,,0,77,77,77,left,1.0544211864471436,left,1,koldbrand,finger,6702,1,2025-11-24_10-57-48
61,knude_compressed.wav,neutral,knude,oprørt,babble_71.wav,fedme_reversed.wav,røver_reversed.wav,,,,,0,78,78,78,right,1.0514419078826904,right,1,oprørt,knude,6702,1,2025-11-24_10-57-48
67,cirkus_compressed.wav,positive,cirkus,kande,babble_91.wav,himlen_reversed.wav,lampe_reversed.wav,,,,,0,79,79,79,left,0.9525210857391356,left,1,cirkus,kande,6702,1,2025-11-24_10-57-48
54,væmmes_compressed.wav,negative,væmmes,vandal,babble_53.wav,skyldig_reversed.wav,beskidt_reversed.wav,,,,,0,80,80,80,left,0.816352128982544,left,1,væmmes,vandal,6702,1,2025-11-24_10-57-48
29,kugle_compressed.wav,neutral,kugle,feber,babble_8.wav,boble_reversed.wav,syndig_reversed.wav,,,,,0,81,81,81,right,0.7480900287628174,right,1,feber,kugle,6702,1,2025-11-24_10-57-48
27,statue_compressed.wav,neutral,statue,dollar,babble_13.wav,fængsel_reversed.wav,salat_reversed.wav,,,,,0,82,82,82,right,0.8631300926208496,right,1,dollar,statue,6702,1,2025-11-24_10-57-48
68,natur_compressed.wav,positive,natur,skuffe,babble_40.wav,modgang_reversed.wav,tumor_reversed.wav,,,,,0,83,83,83,right,0.934751033782959,right,1,skuffe,natur,6702,1,2025-11-24_10-57-48
90,maling_compressed.wav,neutral,maling,smerte,babble_19.wav,slave_reversed.wav,heldig_reversed.wav,,,,,0,84,84,84,right,1.289093017578125,right,1,smerte,maling,6702,1,2025-11-24_10-57-48
39,tønde_compressed.wav,neutral,tønde,nonsens,babble_55.wav,krise_reversed.wav,røver_reversed.wav,0.0,0.0,0.0,0.0,0,-1,-1,0,left,2.200920999981463,left,1,tønde,nonsens,3475,1,2025-12-06_13-56-49
35,intim_compressed.wav,positive,intim,musik,babble_70.wav,hage_reversed.wav,flirte_reversed.wav,0.0,1.0,1.0,1.0,0,-1,-1,0,left,1.1763446999830194,left,1,intim,musik,3475,1,2025-12-06_13-56-49
28,diamant_compressed.wav,positive,diamant,spise,babble_13.wav,kærtegn_reversed.wav,papir_reversed.wav,0.0,2.0,2.0,2.0,0,-1,-1,0,right,2.8457174000213854,left,0,diamant,spise,3475,1,2025-12-06_13-56-49
7,pervers_compressed.wav,negative,pervers,genert,babble_1.wav,sygdom_reversed.wav,blomstre_reversed.wav,0.0,3.0,3.0,3.0,0,-1,-1,0,right,0.8954822000232525,right,1,genert,pervers,3475,1,2025-12-06_13-56-49
88,syndig_compressed.wav,negative,syndig,forår,babble_32.wav,marked_reversed.wav,sollys_reversed.wav,0.0,4.0,4.0,4.0,0,-1,-1,0,left,1.5388706999947317,left,1,syndig,forår,3475,1,2025-12-06_13-56-49
17,vandfald_compressed.wav,positive,vandfald,genert,babble_87.wav,latter_reversed.wav,bange_reversed.wav,,,,,0,0,0,0,right,0.9718305999995208,right,1,genert,vandfald,3475,1,2025-12-06_13-56-49
87,oprør_compressed.wav,negative,oprør,hånlig,babble_93.wav,måned_reversed.wav,gratis_reversed.wav,,,,,0,1,1,1,right,2.9953256999724545,right,1,hånlig,oprør,3475,1,2025-12-06_13-56-49
49,skønhed_compressed.wav,positive,skønhed,forår,babble_82.wav,blodig_reversed.wav,leder_reversed.wav,,,,,0,2,2,2,left,0.7307119999895804,left,1,skønhed,forår,3475,1,2025-12-06_13-56-49
50,syndig_compressed.wav,negative,syndig,trofæ,babble_41.wav,fremskridt_reversed.wav,frygtsom_reversed.wav,,,,,0,3,3,3,right,0.9056115000275896,right,1,trofæ,syndig,3475,1,2025-12-06_13-56-49
52,tønde_compressed.wav,neutral,tønde,kande,babble_11.wav,baby_reversed.wav,patent_reversed.wav,,,,,0,4,4,4,right,1.3383003000053575,right,1,kande,tønde,3475,1,2025-12-06_13-56-49
19,nøgle_compressed.wav,neutral,nøgle,boble,babble_95.wav,genert_reversed.wav,violin_reversed.wav,,,,,0,5,5,5,right,1.0815694000339136,right,1,boble,nøgle,3475,1,2025-12-06_13-56-49
21,opstemt_compressed.wav,positive,opstemt,accept,babble_18.wav,ugle_reversed.wav,fase_reversed.wav,,,,,0,6,6,6,right,1.325629899976775,right,1,accept,opstemt,3475,1,2025-12-06_13-56-49
15,boble_compressed.wav,neutral,boble,væmmes,babble_18.wav,selvmord_reversed.wav,succes_reversed.wav,,,,,0,7,7,7,left,1.3791483999812044,left,1,boble,væmmes,3475,1,2025-12-06_13-56-49
11,knude_compressed.wav,neutral,knude,røver,babble_63.wav,feber_reversed.wav,kedel_reversed.wav,,,,,0,8,8,8,right,1.7554098999826238,right,1,røver,knude,3475,1,2025-12-06_13-56-49
86,hage_compressed.wav,neutral,hage,lyse,babble_74.wav,feber_reversed.wav,nonsens_reversed.wav,,,,,0,9,9,9,left,1.875944699975662,right,0,lyse,hage,3475,1,2025-12-06_13-56-49
26,rabies_compressed.wav,negative,rabies,ørken,babble_53.wav,metal_reversed.wav,respekt_reversed.wav,,,,,0,10,10,10,left,2.293576500029303,right,0,ørken,rabies,3475,1,2025-12-06_13-56-49
68,himlen_compressed.wav,positive,himlen,vindue,babble_89.wav,ankel_reversed.wav,himlen_reversed.wav,,,,,0,11,11,11,right,1.1682059000013396,right,1,vindue,himlen,3475,1,2025-12-06_13-56-49
38,borddug_compressed.wav,neutral,borddug,accept,babble_98.wav,salat_reversed.wav,offer_reversed.wav,,,,,0,12,12,12,right,1.3614073999924583,right,1,accept,borddug,3475,1,2025-12-06_13-56-49
82,kande_compressed.wav,neutral,kande,forfald,babble_14.wav,selvmord_reversed.wav,morder_reversed.wav,,,,,0,13,13,13,left,1.4580876999534669,left,1,kande,forfald,3475,1,2025-12-06_13-56-49
51,ugle_compressed.wav,neutral,ugle,konge,babble_50.wav,gratis_reversed.wav,varme_reversed.wav,,,,,0,14,14,14,left,1.159590199997183,left,1,ugle,konge,3475,1,2025-12-06_13-56-49
8,forfald_compressed.wav,negative,forfald,talent,babble_78.wav,frygtsom_reversed.wav,baby_reversed.wav,,,,,0,15,15,15,right,2.4692275999695994,right,1,talent,forfald,3475,1,2025-12-06_13-56-49
34,brutal_compressed.wav,negative,brutal,festlig,babble_59.wav,skuffe_reversed.wav,metal_reversed.wav,,,,,0,16,16,16,left,0.8769302000291646,left,1,brutal,festlig,3475,1,2025-12-06_13-56-49
75,beskidt_compressed.wav,negative,beskidt,selvmord,babble_7.wav,ledning_reversed.wav,bange_reversed.wav,,,,,0,17,17,17,left,1.0921771000139415,left,1,beskidt,selvmord,3475,1,2025-12-06_13-56-49
61,glæde_compressed.wav,positive,glæde,nøgle,babble_98.wav,kærtegn_reversed.wav,trofæ_reversed.wav,,,,,0,18,18,18,left,3.466014200006612,left,1,glæde,nøgle,3475,1,2025-12-06_13-56-49
71,sollys_compressed.wav,positive,sollys,ønske,babble_47.wav,tilfreds_reversed.wav,fjendtlig_reversed.wav,,,,,0,19,19,19,right,2.9162151999771595,right,1,ønske,sollys,3475,1,2025-12-06_13-56-49
20,ugle_compressed.wav,neutral,ugle,ære,babble_97.wav,metal_reversed.wav,offer_reversed.wav,,,,,0,20,20,20,right,1.0163131000008434,right,1,ære,ugle,3475,1,2025-12-06_13-56-49
78,beundret_compressed.wav,positive,beundret,fase,babble_36.wav,heldig_reversed.wav,selvmord_reversed.wav,,,,,0,21,21,21,left,0.9608237000065856,left,1,beundret,fase,3475,1,2025-12-06_13-56-49
67,enhed_compressed.wav,neutral,enhed,salat,babble_29.wav,tilfreds_reversed.wav,metal_reversed.wav,,,,,0,22,22,22,left,0.8990985000273213,left,1,enhed,salat,3475,1,2025-12-06_13-56-49
14,hjerte_compressed.wav,positive,hjerte,sandhed,babble_27.wav,ankel_reversed.wav,vandfald_reversed.wav,,,,,0,23,23,23,right,3.3395677000517026,right,1,sandhed,hjerte,3475,1,2025-12-06_13-56-49
18,hånlig_compressed.wav,negative,hånlig,misbrug,babble_67.wav,mave_reversed.wav,vandfald_reversed.wav,,,,,0,24,24,24,left,1.3001041999668814,left,1,hånlig,misbrug,3475,1,2025-12-06_13-56-49
80,passion_compressed.wav,positive,passion,rædsel,babble_86.wav,nonsens_reversed.wav,ledning_reversed.wav,,,,,0,25,25,25,left,0.8469721999717876,left,1,passion,rædsel,3475,1,2025-12-06_13-56-49
69,lyse_compressed.wav,positive,lyse,dæmpet,babble_48.wav,cirkel_reversed.wav,lærer_reversed.wav,,,,,0,26,26,26,right,1.0796838999958709,right,1,dæmpet,lyse,3475,1,2025-12-06_13-56-49
79,lækker_compressed.wav,positive,lækker,ketchup,babble_79.wav,lækker_reversed.wav,tortur_reversed.wav,,,,,0,27,27,27,left,0.881988100009039,left,1,lækker,ketchup,3475,1,2025-12-06_13-56-49
29,leder_compressed.wav,positive,leder,modgang,babble_15.wav,smerte_reversed.wav,dæmpet_reversed.wav,,,,,0,28,28,28,right,1.1505079999915324,right,1,modgang,leder,3475,1,2025-12-06_13-56-49
47,musik_compressed.wav,positive,musik,marked,babble_56.wav,museum_reversed.wav,gidsel_reversed.wav,,,,,0,29,29,29,right,1.6651500000152737,right,1,marked,musik,3475,1,2025-12-06_13-56-49
42,redning_compressed.wav,positive,redning,spænding,babble_46.wav,bombe_reversed.wav,hjerte_reversed.wav,,,,,0,30,30,30,left,0.8916353000095114,left,1,redning,spænding,3475,1,2025-12-06_13-56-49
25,udskud_compressed.wav,negative,udskud,lærer,babble_74.wav,leder_reversed.wav,fase_reversed.wav,,,,,0,31,31,31,left,1.0583578000077978,left,1,udskud,lærer,3475,1,2025-12-06_13-56-49
30,utro_compressed.wav,negative,utro,udskud,babble_11.wav,pervers_reversed.wav,ketchup_reversed.wav,,,,,0,32,32,32,right,2.359412499994505,right,1,udskud,utro,3475,1,2025-12-06_13-56-49
63,patent_compressed.wav,neutral,patent,krise,babble_24.wav,trussel_reversed.wav,utro_reversed.wav,,,,,0,33,33,33,left,0.8433026999700814,left,1,patent,krise,3475,1,2025-12-06_13-56-49
10,kvæles_compressed.wav,negative,kvæles,affald,babble_85.wav,himmel_reversed.wav,søsyg_reversed.wav,,,,,0,34,34,34,left,0.8472683999571018,left,1,kvæles,affald,3475,1,2025-12-06_13-56-49
23,ketchup_compressed.wav,neutral,ketchup,syndig,babble_62.wav,nonne_reversed.wav,misbrug_reversed.wav,,,,,0,35,35,35,left,0.8610096999909729,left,1,ketchup,syndig,3475,1,2025-12-06_13-56-49
13,skyldig_compressed.wav,negative,skyldig,brutal,babble_12.wav,salat_reversed.wav,fedme_reversed.wav,,,,,0,36,36,36,right,3.3514979999745265,right,1,brutal,skyldig,3475,1,2025-12-06_13-56-49
22,kontor_compressed.wav,neutral,kontor,knude,babble_49.wav,illoyal_reversed.wav,oprørt_reversed.wav,,,,,0,37,37,37,right,0.8386451000114903,right,1,knude,kontor,3475,1,2025-12-06_13-56-49
16,væmmes_compressed.wav,negative,væmmes,grusom,babble_24.wav,sandhed_reversed.wav,taxa_reversed.wav,,,,,0,38,38,38,left,0.8276818000013009,left,1,væmmes,grusom,3475,1,2025-12-06_13-56-49
62,sexet_compressed.wav,positive,sexet,tumor,babble_84.wav,gidsel_reversed.wav,sikker_reversed.wav,,,,,0,39,39,39,right,0.8856999000418,right,1,tumor,sexet,3475,1,2025-12-06_13-56-49
73,blomstre_compressed.wav,positive,blomstre,glæde,babble_63.wav,tumor_reversed.wav,fængsel_reversed.wav,,,,,0,40,40,40,right,1.1241519000031983,right,1,glæde,blomstre,3475,1,2025-12-06_13-56-49
24,kvæles_compressed.wav,negative,kvæles,beundret,babble_91.wav,rigdom_reversed.wav,nøgle_reversed.wav,,,,,0,41,41,41,left,0.7361852999893017,left,1,kvæles,beundret,3475,1,2025-12-06_13-56-49
74,papir_compressed.wav,neutral,papir,beundret,babble_43.wav,venlig_reversed.wav,kæle_reversed.wav,,,,,0,42,42,42,right,0.8759464000468142,right,1,beundret,papir,3475,1,2025-12-06_13-56-49
57,spænding_compressed.wav,positive,spænding,voldtægt,babble_43.wav,ankel_reversed.wav,kande_reversed.wav,,,,,0,43,43,43,right,1.120083499990869,right,1,voldtægt,spænding,3475,1,2025-12-06_13-56-49
46,væmmes_compressed.wav,negative,væmmes,konkurs,babble_34.wav,glæde_reversed.wav,festlig_reversed.wav,,,,,0,44,44,44,right,0.8380254000076093,right,1,konkurs,væmmes,3475,1,2025-12-06_13-56-49
40,borddug_compressed.wav,neutral,borddug,magisk,babble_5.wav,affald_reversed.wav,fiasko_reversed.wav,,,,,0,45,45,45,left,1.446298900002148,left,1,borddug,magisk,3475,1,2025-12-06_13-56-49
27,feber_compressed.wav,negative,feber,bryllup,babble_48.wav,skammel_reversed.wav,fremskridt_reversed.wav,,,,,0,46,46,46,left,1.5128617000300435,left,1,feber,bryllup,3475,1,2025-12-06_13-56-49
4,utro_compressed.wav,negative,utro,skammel,babble_16.wav,sandhed_reversed.wav,slave_reversed.wav,,,,,0,47,47,47,left,3.7667383999796575,right,0,skammel,utro,3475,1,2025-12-06_13-56-49
12,opstemt_compressed.wav,positive,opstemt,humor,babble_49.wav,misbrug_reversed.wav,boble_reversed.wav,,,,,0,48,48,48,right,0.9884714999934658,right,1,humor,opstemt,3475,1,2025-12-06_13-56-49
76,genstand_compressed.wav,neutral,genstand,smerte,babble_60.wav,rædsel_reversed.wav,koldbrand_reversed.wav,,,,,0,49,49,49,right,0.6702895000344142,right,1,smerte,genstand,3475,1,2025-12-06_13-56-49
41,pjece_compressed.wav,neutral,pjece,talent,babble_10.wav,patent_reversed.wav,poesi_reversed.wav,,,,,0,50,50,50,right,0.8173428999725729,right,1,talent,pjece,3475,1,2025-12-06_13-56-49
44,sollys_compressed.wav,positive,sollys,viden,babble_20.wav,lækker_reversed.wav,utro_reversed.wav,,,,,0,51,51,51,right,1.2551503999857232,right,1,viden,sollys,3475,1,2025-12-06_13-56-49
1,kedel_compressed.wav,neutral,kedel,nonsens,babble_76.wav,djævel_reversed.wav,gratis_reversed.wav,,,,,0,52,52,52,right,0.6889513999922201,right,1,nonsens,kedel,3475,1,2025-12-06_13-56-49
31,opstemt_compressed.wav,positive,opstemt,cirkel,babble_33.wav,genstand_reversed.wav,fjollet_reversed.wav,,,,,0,53,53,53,right,3.041379800008144,right,1,cirkel,opstemt,3475,1,2025-12-06_13-56-49
56,pjece_compressed.wav,neutral,pjece,museum,babble_3.wav,smerte_reversed.wav,ketchup_reversed.wav,,,,,0,54,54,54,right,0.6737151999841444,right,1,museum,pjece,3475,1,2025-12-06_13-56-49
53,væmmes_compressed.wav,negative,væmmes,lærer,babble_53.wav,natur_reversed.wav,forkert_reversed.wav,,,,,0,55,55,55,left,1.038054100004956,left,1,væmmes,lærer,3475,1,2025-12-06_13-56-49
59,konkurs_compressed.wav,negative,konkurs,respekt,babble_52.wav,utro_reversed.wav,feber_reversed.wav,,,,,0,56,56,56,left,3.056523900013417,left,1,konkurs,respekt,3475,1,2025-12-06_13-56-49
58,tortur_compressed.wav,negative,tortur,kugle,babble_9.wav,kande_reversed.wav,forkert_reversed.wav,,,,,0,57,57,57,left,0.8488342000055127,left,1,tortur,kugle,3475,1,2025-12-06_13-56-49
66,dæmpet_compressed.wav,neutral,dæmpet,skade,babble_34.wav,fedme_reversed.wav,metal_reversed.wav,,,,,0,58,58,58,left,0.7467996000195853,left,1,dæmpet,skade,3475,1,2025-12-06_13-56-49
65,røver_compressed.wav,negative,røver,cirkel,babble_17.wav,tortur_reversed.wav,rigdom_reversed.wav,,,,,0,59,59,59,left,1.2411191999563016,left,1,røver,cirkel,3475,1,2025-12-06_13-56-49
83,boble_compressed.wav,neutral,boble,jubel,babble_32.wav,djævel_reversed.wav,fjendtlig_reversed.wav,,,,,0,60,60,60,left,0.8958998000016436,left,1,boble,jubel,3475,1,2025-12-06_13-56-49
3,patent_compressed.wav,neutral,patent,kugle,babble_4.wav,poesi_reversed.wav,viden_reversed.wav,,,,,0,61,61,61,left,0.5577666999888606,left,1,patent,kugle,3475,1,2025-12-06_13-56-49
9,giftig_compressed.wav,negative,giftig,beskidt,babble_40.wav,måned_reversed.wav,ledning_reversed.wav,,,,,0,62,62,62,left,0.7753764999797568,left,1,giftig,beskidt,3475,1,2025-12-06_13-56-49
2,kæle_compressed.wav,positive,kæle,bifald,babble_59.wav,talent_reversed.wav,illoyal_reversed.wav,,,,,0,63,63,63,left,3.000699100026395,left,1,kæle,bifald,3475,1,2025-12-06_13-56-49
32,skuffe_compressed.wav,negative,skuffe,konge,babble_6.wav,misbrug_reversed.wav,sindssyg_reversed.wav,,,,,0,64,64,64,left,1.0537123000249269,left,1,skuffe,konge,3475,1,2025-12-06_13-56-49
90,ledning_compressed.wav,neutral,ledning,kujon,babble_2.wav,dollar_reversed.wav,respekt_reversed.wav,,,,,0,65,65,65,right,1.3474288000143133,right,1,kujon,ledning,3475,1,2025-12-06_13-56-49
45,metal_compressed.wav,neutral,metal,gaffel,babble_17.wav,lampe_reversed.wav,accept_reversed.wav,,,,,0,66,66,66,right,0.6814058999880217,right,1,gaffel,metal,3475,1,2025-12-06_13-56-49
5,genert_compressed.wav,neutral,genert,flirte,babble_37.wav,trussel_reversed.wav,tumor_reversed.wav,,,,,0,67,67,67,left,0.768310500017833,left,1,genert,flirte,3475,1,2025-12-06_13-56-49
6,spænding_compressed.wav,positive,spænding,dæmon,babble_29.wav,sæde_reversed.wav,gratis_reversed.wav,,,,,0,68,68,68,right,1.07554180000443,right,1,dæmon,spænding,3475,1,2025-12-06_13-56-49
60,albue_compressed.wav,neutral,albue,bange,babble_52.wav,cirkel_reversed.wav,blomstre_reversed.wav,,,,,0,69,69,69,left,0.5983789000310935,left,1,albue,bange,3475,1,2025-12-06_13-56-49
48,drukne_compressed.wav,negative,drukne,ørken,babble_7.wav,cirkel_reversed.wav,lærer_reversed.wav,,,,,0,70,70,70,left,1.7622552000102587,right,0,ørken,drukne,3475,1,2025-12-06_13-56-49
85,hjerte_compressed.wav,positive,hjerte,forår,babble_5.wav,skammel_reversed.wav,stjerne_reversed.wav,,,,,0,71,71,71,left,0.956444300012663,left,1,hjerte,forår,3475,1,2025-12-06_13-56-49
37,sygdom_compressed.wav,negative,sygdom,ledning,babble_47.wav,syndig_reversed.wav,humor_reversed.wav,,,,,0,72,72,72,left,0.8680458000162616,left,1,sygdom,ledning,3475,1,2025-12-06_13-56-49
33,lyse_compressed.wav,positive,lyse,diamant,babble_81.wav,blomstre_reversed.wav,oprør_reversed.wav,,,,,0,73,73,73,left,0.9701698000426404,left,1,lyse,diamant,3475,1,2025-12-06_13-56-49
36,bombe_compressed.wav,negative,bombe,enhed,babble_66.wav,grimme_reversed.wav,accept_reversed.wav,,,,,0,74,74,74,right,1.7263912999769673,right,1,enhed,bombe,3475,1,2025-12-06_13-56-49
72,varme_compressed.wav,positive,varme,lampe,babble_66.wav,måned_reversed.wav,rigdom_reversed.wav,,,,,0,75,75,75,right,0.8974444000050426,right,1,lampe,varme,3475,1,2025-12-06_13-56-49
81,gaffel_compressed.wav,neutral,gaffel,ydmyg,babble_85.wav,fase_reversed.wav,plakat_reversed.wav,,,,,0,76,76,76,left,1.1119540999643505,left,1,gaffel,ydmyg,3475,1,2025-12-06_13-56-49
64,grusom_compressed.wav,negative,grusom,kærtegn,babble_17.wav,vinde_reversed.wav,skade_reversed.wav,,,,,0,77,77,77,left,0.685596399998758,left,1,grusom,kærtegn,3475,1,2025-12-06_13-56-49
77,kysse_compressed.wav,positive,kysse,morder,babble_36.wav,violin_reversed.wav,festlig_reversed.wav,,,,,0,78,78,78,right,0.6919937999919057,right,1,morder,kysse,3475,1,2025-12-06_13-56-49
70,venlig_compressed.wav,positive,venlig,knude,babble_50.wav,oprør_reversed.wav,kedel_reversed.wav,,,,,0,79,79,79,left,0.7826282000169158,left,1,venlig,knude,3475,1,2025-12-06_13-56-49
54,vandfald_compressed.wav,positive,vandfald,røver,babble_98.wav,nøgle_reversed.wav,frygtsom_reversed.wav,,,,,0,80,80,80,left,0.8185991000500508,left,1,vandfald,røver,3475,1,2025-12-06_13-56-49
43,fase_compressed.wav,neutral,fase,afvist,babble_20.wav,spise_reversed.wav,fjollet_reversed.wav,,,,,0,81,81,81,left,0.6983430000254884,left,1,fase,afvist,3475,1,2025-12-06_13-56-49
84,ledning_compressed.wav,neutral,ledning,sandhed,babble_13.wav,ankel_reversed.wav,vindue_reversed.wav,,,,,0,82,82,82,right,0.9512293000007048,right,1,sandhed,ledning,3475,1,2025-12-06_13-56-49
89,illoyal_compressed.wav,negative,illoyal,væmmes,babble_35.wav,spise_reversed.wav,latter_reversed.wav,,,,,0,83,83,83,right,1.935477599967271,right,1,væmmes,illoyal,3475,1,2025-12-06_13-56-49
55,rædsel_compressed.wav,negative,rædsel,voldsom,babble_61.wav,krise_reversed.wav,fedme_reversed.wav,,,,,0,84,84,84,left,0.7708718999638222,left,1,rædsel,voldsom,3475,1,2025-12-06_13-56-49
33,flirte_compressed.wav,positive,flirte,festlig,babble_18.wav,trofæ_reversed.wav,lækker_reversed.wav,0.0,0.0,0.0,0.0,0,-1,-1,0,left,6.47893045800447,left,1,flirte,festlig,5050,1,2025-11-26_21-14-16
7,pjece_compressed.wav,neutral,pjece,redning,babble_56.wav,humor_reversed.wav,rigdom_reversed.wav,0.0,1.0,1.0,1.0,0,-1,-1,0,right,1.9698161669948604,right,1,redning,pjece,5050,1,2025-11-26_21-14-16
16,spise_compressed.wav,positive,spise,trussel,babble_24.wav,pjece_reversed.wav,konge_reversed.wav,0.0,2.0,2.0,2.0,0,-1,-1,0,left,0.7900040420063306,left,1,spise,trussel,5050,1,2025-11-26_21-14-16
89,opstemt_compressed.wav,positive,opstemt,måned,babble_7.wav,glæde_reversed.wav,lækker_reversed.wav,0.0,3.0,3.0,3.0,0,-1,-1,0,left,2.2397246670007007,left,1,opstemt,måned,5050,1,2025-11-26_21-14-16
37,fængsel_compressed.wav,negative,fængsel,ferie,babble_94.wav,patent_reversed.wav,dollar_reversed.wav,0.0,4.0,4.0,4.0,0,-1,-1,0,left,2.442067625001073,left,1,fængsel,ferie,5050,1,2025-11-26_21-14-16
27,nonsens_compressed.wav,neutral,nonsens,afskyr,babble_9.wav,himmel_reversed.wav,engel_reversed.wav,,,,,0,0,0,0,left,1.1290391249931415,left,1,nonsens,afskyr,5050,1,2025-11-26_21-14-16
10,nedbrud_compressed.wav,negative,nedbrud,illoyal,babble_57.wav,beskidt_reversed.wav,voldtægt_reversed.wav,,,,,0,1,1,1,right,2.950763624990941,right,1,illoyal,nedbrud,5050,1,2025-11-26_21-14-16
57,enhed_compressed.wav,neutral,enhed,morder,babble_73.wav,selvmord_reversed.wav,røver_reversed.wav,,,,,0,2,2,2,left,3.8386662080010874,left,1,enhed,morder,5050,1,2025-11-26_21-14-16
34,skønhed_compressed.wav,positive,skønhed,rotte,babble_11.wav,ketchup_reversed.wav,patent_reversed.wav,,,,,0,3,3,3,left,3.3641649589990266,left,1,skønhed,rotte,5050,1,2025-11-26_21-14-16
66,baby_compressed.wav,positive,baby,plakat,babble_79.wav,vindue_reversed.wav,kiste_reversed.wav,,,,,0,4,4,4,left,0.9751034159999108,left,1,baby,plakat,5050,1,2025-11-26_21-14-16
43,plakat_compressed.wav,neutral,plakat,avis,babble_11.wav,festlig_reversed.wav,pervers_reversed.wav,,,,,0,5,5,5,right,5.141867124999408,left,0,plakat,avis,5050,1,2025-11-26_21-14-16
72,vindue_compressed.wav,neutral,vindue,bifald,babble_71.wav,redning_reversed.wav,ugle_reversed.wav,,,,,0,6,6,6,left,1.035573375003878,left,1,vindue,bifald,5050,1,2025-11-26_21-14-16
63,kontor_compressed.wav,neutral,kontor,banner,babble_35.wav,redning_reversed.wav,sygdom_reversed.wav,,,,,0,7,7,7,right,0.9300629170029424,right,1,banner,kontor,5050,1,2025-11-26_21-14-16
1,bygning_compressed.wav,neutral,bygning,marked,babble_5.wav,jubel_reversed.wav,oprør_reversed.wav,,,,,0,8,8,8,left,0.7442598750058096,left,1,bygning,marked,5050,1,2025-11-26_21-14-16
52,ledning_compressed.wav,neutral,ledning,hjerte,babble_17.wav,fængsel_reversed.wav,kage_reversed.wav,,,,,0,9,9,9,left,3.8822033339965856,left,1,ledning,hjerte,5050,1,2025-11-26_21-14-16
23,selvmord_compressed.wav,negative,selvmord,illoyal,babble_82.wav,gave_reversed.wav,rotte_reversed.wav,,,,,0,10,10,10,left,3.2634761249937583,right,0,illoyal,selvmord,5050,1,2025-11-26_21-14-16
59,rådden_compressed.wav,negative,rådden,sindssyg,babble_78.wav,tortur_reversed.wav,konkurs_reversed.wav,,,,,0,11,11,11,right,3.936915415994008,right,1,sindssyg,rådden,5050,1,2025-11-26_21-14-16
8,morder_compressed.wav,negative,morder,tønde,babble_14.wav,ferie_reversed.wav,kærtegn_reversed.wav,,,,,0,12,12,12,left,1.1371658749994822,left,1,morder,tønde,5050,1,2025-11-26_21-14-16
31,salat_compressed.wav,neutral,salat,tortur,babble_66.wav,kedel_reversed.wav,engel_reversed.wav,,,,,0,13,13,13,right,0.5375390419940231,right,1,tortur,salat,5050,1,2025-11-26_21-14-16
50,nonsens_compressed.wav,neutral,nonsens,afskyr,babble_18.wav,søsyg_reversed.wav,kande_reversed.wav,,,,,0,14,14,14,left,2.0598591250018217,left,1,nonsens,afskyr,5050,1,2025-11-26_21-14-16
84,trofæ_compressed.wav,positive,trofæ,metal,babble_95.wav,spise_reversed.wav,morder_reversed.wav,,,,,0,15,15,15,right,0.9550451249961044,right,1,metal,trofæ,5050,1,2025-11-26_21-14-16
77,kiste_compressed.wav,negative,kiste,dollar,babble_33.wav,vinde_reversed.wav,metal_reversed.wav,,,,,0,16,16,16,right,4.06734508300724,right,1,dollar,kiste,5050,1,2025-11-26_21-14-16
64,affald_compressed.wav,negative,affald,varme,babble_9.wav,krise_reversed.wav,gaffel_reversed.wav,,,,,0,17,17,17,left,1.9919640000007348,left,1,affald,varme,5050,1,2025-11-26_21-14-16
75,hader_compressed.wav,negative,hader,fiasko,babble_95.wav,leder_reversed.wav,forpint_reversed.wav,,,,,0,18,18,18,right,0.7463174159929622,right,1,fiasko,hader,5050,1,2025-11-26_21-14-16
20,ønske_compressed.wav,positive,ønske,sexet,babble_9.wav,morder_reversed.wav,maling_reversed.wav,,,,,0,19,19,19,right,0.7094240000005811,right,1,sexet,ønske,5050,1,2025-11-26_21-14-16
65,accept_compressed.wav,positive,accept,konge,babble_9.wav,konge_reversed.wav,cirkel_reversed.wav,,,,,0,20,20,20,left,1.8571424999972803,left,1,accept,konge,5050,1,2025-11-26_21-14-16
42,selvmord_compressed.wav,negative,selvmord,hånlig,babble_99.wav,skade_reversed.wav,latter_reversed.wav,,,,,0,21,21,21,left,1.1268981250032084,left,1,selvmord,hånlig,5050,1,2025-11-26_21-14-16
39,hader_compressed.wav,negative,hader,fedme,babble_43.wav,kedel_reversed.wav,heldig_reversed.wav,,,,,0,22,22,22,right,1.067195208001067,right,1,fedme,hader,5050,1,2025-11-26_21-14-16
45,misbrug_compressed.wav,negative,misbrug,affald,babble_24.wav,ønske_reversed.wav,museum_reversed.wav,,,,,0,23,23,23,left,3.4810620000062045,left,1,misbrug,affald,5050,1,2025-11-26_21-14-16
19,lampe_compressed.wav,neutral,lampe,ørken,babble_94.wav,væmmes_reversed.wav,beskidt_reversed.wav,,,,,0,24,24,24,left,1.7309172920067797,left,1,lampe,ørken,5050,1,2025-11-26_21-14-16
70,kande_compressed.wav,neutral,kande,konge,babble_84.wav,slagtning_reversed.wav,bifald_reversed.wav,,,,,0,25,25,25,right,1.397905083009391,right,1,konge,kande,5050,1,2025-11-26_21-14-16
87,mave_compressed.wav,neutral,mave,gave,babble_27.wav,tortur_reversed.wav,hånlig_reversed.wav,,,,,0,26,26,26,left,4.259453874998144,left,1,mave,gave,5050,1,2025-11-26_21-14-16
40,baby_compressed.wav,positive,baby,grusom,babble_1.wav,sejre_reversed.wav,enhed_reversed.wav,,,,,0,27,27,27,left,0.9096953340049369,left,1,baby,grusom,5050,1,2025-11-26_21-14-16
48,mester_compressed.wav,positive,mester,beskidt,babble_70.wav,oprørt_reversed.wav,gave_reversed.wav,,,,,0,28,28,28,left,3.748780583991902,left,1,mester,beskidt,5050,1,2025-11-26_21-14-16
44,morder_compressed.wav,negative,morder,redskab,babble_88.wav,kontor_reversed.wav,kande_reversed.wav,,,,,0,29,29,29,left,1.0488575420022244,left,1,morder,redskab,5050,1,2025-11-26_21-14-16
36,brutal_compressed.wav,negative,brutal,hader,babble_10.wav,vandal_reversed.wav,konkurs_reversed.wav,,,,,0,30,30,30,left,1.3818542919907486,left,1,brutal,hader,5050,1,2025-11-26_21-14-16
90,vinde_compressed.wav,positive,vinde,lampe,babble_68.wav,grimme_reversed.wav,ørken_reversed.wav,,,,,0,31,31,31,right,1.4725485409871908,right,1,lampe,vinde,5050,1,2025-11-26_21-14-16
47,kærtegn_compressed.wav,positive,kærtegn,gidsel,babble_31.wav,kage_reversed.wav,ønske_reversed.wav,,,,,0,32,32,32,right,3.423058750006021,right,1,gidsel,kærtegn,5050,1,2025-11-26_21-14-16
17,vinde_compressed.wav,positive,vinde,brænde,babble_81.wav,genert_reversed.wav,fiasko_reversed.wav,,,,,0,33,33,33,left,1.9835155830078293,left,1,vinde,brænde,5050,1,2025-11-26_21-14-16
35,gidsel_compressed.wav,negative,gidsel,kedel,babble_14.wav,slave_reversed.wav,ensom_reversed.wav,,,,,0,34,34,34,right,3.0601491249981336,right,1,kedel,gidsel,5050,1,2025-11-26_21-14-16
60,plakat_compressed.wav,neutral,plakat,gade,babble_5.wav,humor_reversed.wav,patent_reversed.wav,,,,,0,35,35,35,left,1.9041327909944807,left,1,plakat,gade,5050,1,2025-11-26_21-14-16
24,gade_compressed.wav,neutral,gade,tortur,babble_16.wav,voldtægt_reversed.wav,affald_reversed.wav,,,,,0,36,36,36,right,2.7777252910018437,right,1,tortur,gade,5050,1,2025-11-26_21-14-16
2,festlig_compressed.wav,positive,festlig,kiste,babble_86.wav,djævel_reversed.wav,kedel_reversed.wav,,,,,0,37,37,37,left,1.8026027079904448,left,1,festlig,kiste,5050,1,2025-11-26_21-14-16
53,voldsom_compressed.wav,negative,voldsom,sindssyg,babble_46.wav,heldig_reversed.wav,kage_reversed.wav,,,,,0,38,38,38,right,0.6451636249985313,right,1,sindssyg,voldsom,5050,1,2025-11-26_21-14-16
58,cirkus_compressed.wav,positive,cirkus,beskidt,babble_44.wav,mester_reversed.wav,offer_reversed.wav,,,,,0,39,39,39,right,0.9489341250009602,right,1,beskidt,cirkus,5050,1,2025-11-26_21-14-16
9,skammel_compressed.wav,neutral,skammel,violin,babble_24.wav,beskidt_reversed.wav,poesi_reversed.wav,,,,,0,40,40,40,right,1.1583616659918334,right,1,violin,skammel,5050,1,2025-11-26_21-14-16
25,grimme_compressed.wav,negative,grimme,plakat,babble_98.wav,himlen_reversed.wav,offer_reversed.wav,,,,,0,41,41,41,right,2.16331404200173,right,1,plakat,grimme,5050,1,2025-11-26_21-14-16
78,luksus_compressed.wav,positive,luksus,motor,babble_23.wav,passion_reversed.wav,statue_reversed.wav,,,,,0,42,42,42,left,1.0144295409991173,left,1,luksus,motor,5050,1,2025-11-26_21-14-16
74,fiasko_compressed.wav,negative,fiasko,brutal,babble_93.wav,ferie_reversed.wav,morder_reversed.wav,,,,,0,43,43,43,left,2.4193141249998007,left,1,fiasko,brutal,5050,1,2025-11-26_21-14-16
28,nedbrud_compressed.wav,negative,nedbrud,ankel,babble_71.wav,boble_reversed.wav,poesi_reversed.wav,,,,,0,44,44,44,right,3.7392003330023726,right,1,ankel,nedbrud,5050,1,2025-11-26_21-14-16
3,utro_compressed.wav,negative,utro,banner,babble_94.wav,beskidt_reversed.wav,brænde_reversed.wav,,,,,0,45,45,45,right,1.7915265829942657,right,1,banner,utro,5050,1,2025-11-26_21-14-16
56,ankel_compressed.wav,neutral,ankel,skammel,babble_16.wav,nonne_reversed.wav,ørken_reversed.wav,,,,,0,46,46,46,right,0.8567527499981225,right,1,skammel,ankel,5050,1,2025-11-26_21-14-16
38,taxa_compressed.wav,neutral,taxa,sollys,babble_39.wav,bifald_reversed.wav,spise_reversed.wav,,,,,0,47,47,47,right,1.0935161660017911,right,1,sollys,taxa,5050,1,2025-11-26_21-14-16
46,drukne_compressed.wav,negative,drukne,humor,babble_23.wav,oprør_reversed.wav,dæmon_reversed.wav,,,,,0,48,48,48,left,1.8112733750022016,right,0,humor,drukne,5050,1,2025-11-26_21-14-16
15,stjerne_compressed.wav,positive,stjerne,sæde,babble_7.wav,passion_reversed.wav,drukne_reversed.wav,,,,,0,49,49,49,right,0.6413663749990519,right,1,sæde,stjerne,5050,1,2025-11-26_21-14-16
12,vinde_compressed.wav,positive,vinde,syndig,babble_90.wav,konge_reversed.wav,rigdom_reversed.wav,,,,,0,50,50,50,left,1.3142366249958286,left,1,vinde,syndig,5050,1,2025-11-26_21-14-16
29,rådden_compressed.wav,negative,rådden,skammel,babble_1.wav,varme_reversed.wav,stjerne_reversed.wav,,,,,0,51,51,51,left,1.833330499997828,right,0,skammel,rådden,5050,1,2025-11-26_21-14-16
18,hjerte_compressed.wav,positive,hjerte,borddug,babble_9.wav,grimme_reversed.wav,plakat_reversed.wav,,,,,0,52,52,52,left,1.8037661669950469,left,1,hjerte,borddug,5050,1,2025-11-26_21-14-16
61,gade_compressed.wav,neutral,gade,baby,babble_17.wav,sæde_reversed.wav,flirte_reversed.wav,,,,,0,53,53,53,left,1.299482957998407,left,1,gade,baby,5050,1,2025-11-26_21-14-16
86,voldsom_compressed.wav,negative,voldsom,frelser,babble_30.wav,offer_reversed.wav,albue_reversed.wav,,,,,0,54,54,54,right,1.5784341670077993,right,1,frelser,voldsom,5050,1,2025-11-26_21-14-16
69,voldtægt_compressed.wav,negative,voldtægt,skyldig,babble_15.wav,hånlig_reversed.wav,affald_reversed.wav,,,,,0,55,55,55,right,0.8789413339982275,right,1,skyldig,voldtægt,5050,1,2025-11-26_21-14-16
71,enhed_compressed.wav,neutral,enhed,dæmpet,babble_78.wav,hader_reversed.wav,marked_reversed.wav,,,,,0,56,56,56,left,3.2081901250057854,left,1,enhed,dæmpet,5050,1,2025-11-26_21-14-16
73,redning_compressed.wav,positive,redning,poesi,babble_47.wav,tilfreds_reversed.wav,hjerte_reversed.wav,,,,,0,57,57,57,right,0.8232652919978136,right,1,poesi,redning,5050,1,2025-11-26_21-14-16
51,genert_compressed.wav,neutral,genert,vinde,babble_27.wav,konge_reversed.wav,nøgle_reversed.wav,,,,,0,58,58,58,right,0.792562957998598,right,1,vinde,genert,5050,1,2025-11-26_21-14-16
55,finger_compressed.wav,neutral,finger,plakat,babble_14.wav,skammel_reversed.wav,fiasko_reversed.wav,,,,,0,59,59,59,right,1.5644712079956662,right,1,plakat,finger,5050,1,2025-11-26_21-14-16
62,glæde_compressed.wav,positive,glæde,violin,babble_38.wav,jubel_reversed.wav,kæle_reversed.wav,,,,,0,60,60,60,right,1.3558383749914356,right,1,violin,glæde,5050,1,2025-11-26_21-14-16
54,giftig_compressed.wav,negative,giftig,albue,babble_89.wav,konkurs_reversed.wav,forkert_reversed.wav,,,,,0,61,61,61,right,2.1217931249993853,right,1,albue,giftig,5050,1,2025-11-26_21-14-16
11,ønske_compressed.wav,positive,ønske,sollys,babble_76.wav,trofæ_reversed.wav,taxa_reversed.wav,,,,,0,62,62,62,right,0.7295652499888092,right,1,sollys,ønske,5050,1,2025-11-26_21-14-16
32,rotte_compressed.wav,negative,rotte,natur,babble_97.wav,spænding_reversed.wav,dæmon_reversed.wav,,,,,0,63,63,63,right,3.092427833005786,left,0,rotte,natur,5050,1,2025-11-26_21-14-16
81,magisk_compressed.wav,positive,magisk,brænde,babble_67.wav,skønhed_reversed.wav,sandhed_reversed.wav,,,,,0,64,64,64,right,1.5012782499979949,right,1,brænde,magisk,5050,1,2025-11-26_21-14-16
41,bifald_compressed.wav,positive,bifald,succes,babble_98.wav,knude_reversed.wav,måned_reversed.wav,,,,,0,65,65,65,left,2.077052124994225,left,1,bifald,succes,5050,1,2025-11-26_21-14-16
83,sæde_compressed.wav,neutral,sæde,ledning,babble_63.wav,selvmord_reversed.wav,papir_reversed.wav,,,,,0,66,66,66,left,3.5907305000000638,right,0,ledning,sæde,5050,1,2025-11-26_21-14-16
6,gaffel_compressed.wav,neutral,gaffel,marked,babble_3.wav,ledning_reversed.wav,spænding_reversed.wav,,,,,0,67,67,67,right,1.4761188340053195,right,1,marked,gaffel,5050,1,2025-11-26_21-14-16
67,genstand_compressed.wav,neutral,genstand,respekt,babble_57.wav,tortur_reversed.wav,sikker_reversed.wav,,,,,0,68,68,68,right,0.7991864590003388,right,1,respekt,genstand,5050,1,2025-11-26_21-14-16
49,opstemt_compressed.wav,positive,opstemt,natur,babble_97.wav,fase_reversed.wav,sollys_reversed.wav,,,,,0,69,69,69,left,3.2920213750039693,left,1,opstemt,natur,5050,1,2025-11-26_21-14-16
79,kande_compressed.wav,neutral,kande,bygning,babble_18.wav,baby_reversed.wav,leder_reversed.wav,,,,,0,70,70,70,left,1.789311209009611,left,1,kande,bygning,5050,1,2025-11-26_21-14-16
76,engel_compressed.wav,positive,engel,rædsel,babble_26.wav,humor_reversed.wav,tumor_reversed.wav,,,,,0,71,71,71,right,4.230696792001254,right,1,rædsel,engel,5050,1,2025-11-26_21-14-16
80,mave_compressed.wav,neutral,mave,heldig,babble_35.wav,fjollet_reversed.wav,redning_reversed.wav,,,,,0,72,72,72,left,2.74086854099005,left,1,mave,heldig,5050,1,2025-11-26_21-14-16
4,enhed_compressed.wav,neutral,enhed,metal,babble_76.wav,fedme_reversed.wav,jubel_reversed.wav,,,,,0,73,73,73,right,2.632874457995058,left,0,enhed,metal,5050,1,2025-11-26_21-14-16
88,kage_compressed.wav,positive,kage,koldbrand,babble_44.wav,respekt_reversed.wav,dollar_reversed.wav,,,,,0,74,74,74,right,1.9237688340072052,right,1,koldbrand,kage,5050,1,2025-11-26_21-14-16
26,modgang_compressed.wav,negative,modgang,trofæ,babble_24.wav,rigdom_reversed.wav,rotte_reversed.wav,,,,,0,75,75,75,right,1.9184798330097688,right,1,trofæ,modgang,5050,1,2025-11-26_21-14-16
13,voldsom_compressed.wav,negative,voldsom,rabies,babble_56.wav,jubel_reversed.wav,bombe_reversed.wav,,,,,0,76,76,76,left,0.9752538750035455,left,1,voldsom,rabies,5050,1,2025-11-26_21-14-16
21,frygtsom_compressed.wav,negative,frygtsom,bifald,babble_52.wav,mester_reversed.wav,fængsel_reversed.wav,,,,,0,77,77,77,left,3.3958536249992903,left,1,frygtsom,bifald,5050,1,2025-11-26_21-14-16
5,redskab_compressed.wav,neutral,redskab,frihed,babble_42.wav,voldtægt_reversed.wav,salat_reversed.wav,,,,,0,78,78,78,right,5.232517999989796,left,0,redskab,frihed,5050,1,2025-11-26_21-14-16
22,intim_compressed.wav,positive,intim,ugle,babble_28.wav,spise_reversed.wav,salat_reversed.wav,,,,,0,79,79,79,right,2.866769916989142,right,1,ugle,intim,5050,1,2025-11-26_21-14-16
85,kæle_compressed.wav,positive,kæle,diamant,babble_21.wav,bombe_reversed.wav,trussel_reversed.wav,,,,,0,80,80,80,right,2.6902977919962723,right,1,diamant,kæle,5050,1,2025-11-26_21-14-16
30,beskidt_compressed.wav,negative,beskidt,voldtægt,babble_8.wav,cirkel_reversed.wav,giftig_reversed.wav,,,,,0,81,81,81,left,3.280222249988583,left,1,beskidt,voldtægt,5050,1,2025-11-26_21-14-16
14,tortur_compressed.wav,negative,tortur,forpint,babble_31.wav,måned_reversed.wav,diamant_reversed.wav,,,,,0,82,82,82,right,3.0130992919876007,right,1,forpint,tortur,5050,1,2025-11-26_21-14-16
68,motor_compressed.wav,neutral,motor,marked,babble_11.wav,utro_reversed.wav,dæmon_reversed.wav,,,,,0,83,83,83,left,2.6997444159933366,left,1,motor,marked,5050,1,2025-11-26_21-14-16
82,luksus_compressed.wav,positive,luksus,dæmon,babble_5.wav,flirte_reversed.wav,dæmpet_reversed.wav,,,,,0,84,84,84,left,1.8593067079928003,left,1,luksus,dæmon,5050,1,2025-11-26_21-14-16
65,engel_compressed.wav,positive,engel,spænding,babble_93.wav,cirkel_reversed.wav,genstand_reversed.wav,0.0,0.0,0.0,0.0,0,-1,-1,0,left,1.949666976928711,right,0,spænding,engel,5567,1,2025-11-28_14-28-04
7,putte_compressed.wav,positive,putte,marked,babble_89.wav,sejre_reversed.wav,ledning_reversed.wav,0.0,1.0,1.0,1.0,0,-1,-1,0,left,4.287108898162842,right,0,marked,putte,5567,1,2025-11-28_14-28-04
81,taber_compressed.wav,negative,taber,væmmes,babble_28.wav,cirkel_reversed.wav,passion_reversed.wav,0.0,2.0,2.0,2.0,0,-1,-1,0,left,1.5543899536132812,left,1,taber,væmmes,5567,1,2025-11-28_14-28-04
19,poesi_compressed.wav,neutral,poesi,motor,babble_3.wav,mester_reversed.wav,pude_reversed.wav,0.0,3.0,3.0,3.0,0,-1,-1,0,left,3.317033052444458,left,1,poesi,motor,5567,1,2025-11-28_14-28-04
69,måned_compressed.wav,neutral,måned,metal,babble_12.wav,tilfreds_reversed.wav,heldig_reversed.wav,0.0,4.0,4.0,4.0,0,-1,-1,0,left,1.345216989517212,left,1,måned,metal,5567,1,2025-11-28_14-28-04
17,salat_compressed.wav,neutral,salat,vinde,babble_34.wav,magisk_reversed.wav,avis_reversed.wav,,,,,0,0,0,0,right,0.6279850006103516,right,1,vinde,salat,5567,1,2025-11-28_14-28-04
85,museum_compressed.wav,neutral,museum,tortur,babble_30.wav,kedel_reversed.wav,banner_reversed.wav,,,,,0,1,1,1,left,0.5564799308776855,left,1,museum,tortur,5567,1,2025-11-28_14-28-04
48,kæle_compressed.wav,positive,kæle,diamant,babble_47.wav,djævel_reversed.wav,boble_reversed.wav,,,,,0,2,2,2,left,1.1410789489746094,left,1,kæle,diamant,5567,1,2025-11-28_14-28-04
41,knude_compressed.wav,neutral,knude,bygning,babble_49.wav,kedel_reversed.wav,utro_reversed.wav,,,,,0,3,3,3,left,1.273705005645752,left,1,knude,bygning,5567,1,2025-11-28_14-28-04
56,fængsel_compressed.wav,negative,fængsel,penge,babble_65.wav,brutal_reversed.wav,opstemt_reversed.wav,,,,,0,4,4,4,right,1.5684750080108645,right,1,penge,fængsel,5567,1,2025-11-28_14-28-04
15,konkurs_compressed.wav,negative,konkurs,enhed,babble_40.wav,genstand_reversed.wav,bygning_reversed.wav,,,,,0,5,5,5,left,2.788300037384033,left,1,konkurs,enhed,5567,1,2025-11-28_14-28-04
10,mave_compressed.wav,neutral,mave,kande,babble_33.wav,modgang_reversed.wav,grimme_reversed.wav,,,,,0,6,6,6,left,1.797044038772583,right,0,kande,mave,5567,1,2025-11-28_14-28-04
11,flirte_compressed.wav,positive,flirte,ønske,babble_3.wav,pervers_reversed.wav,leder_reversed.wav,,,,,0,7,7,7,left,1.186884880065918,left,1,flirte,ønske,5567,1,2025-11-28_14-28-04
29,natur_compressed.wav,positive,natur,sikker,babble_89.wav,varme_reversed.wav,nøgle_reversed.wav,,,,,0,8,8,8,right,0.5114660263061523,right,1,sikker,natur,5567,1,2025-11-28_14-28-04
80,kande_compressed.wav,neutral,kande,dollar,babble_46.wav,voldtægt_reversed.wav,kage_reversed.wav,,,,,0,9,9,9,left,0.9272329807281494,left,1,kande,dollar,5567,1,2025-11-28_14-28-04
31,blodig_compressed.wav,negative,blodig,putte,babble_61.wav,marked_reversed.wav,hånlig_reversed.wav,,,,,0,10,10,10,right,1.3949799537658691,right,1,putte,blodig,5567,1,2025-11-28_14-28-04
18,misbrug_compressed.wav,negative,misbrug,illoyal,babble_87.wav,fremskridt_reversed.wav,engel_reversed.wav,,,,,0,11,11,11,right,0.5238900184631348,right,1,illoyal,misbrug,5567,1,2025-11-28_14-28-04
37,voldtægt_compressed.wav,negative,voldtægt,fjollet,babble_52.wav,avis_reversed.wav,viden_reversed.wav,,,,,0,12,12,12,right,0.5634720325469971,right,1,fjollet,voldtægt,5567,1,2025-11-28_14-28-04
32,lyse_compressed.wav,positive,lyse,forår,babble_89.wav,fase_reversed.wav,grusom_reversed.wav,,,,,0,13,13,13,right,1.5994138717651367,right,1,forår,lyse,5567,1,2025-11-28_14-28-04
3,festlig_compressed.wav,positive,festlig,spise,babble_70.wav,illoyal_reversed.wav,giftig_reversed.wav,,,,,0,14,14,14,left,1.67979097366333,right,0,spise,festlig,5567,1,2025-11-28_14-28-04
12,bombe_compressed.wav,negative,bombe,hårnål,babble_76.wav,vandal_reversed.wav,modgang_reversed.wav,,,,,0,15,15,15,right,0.4498660564422607,right,1,hårnål,bombe,5567,1,2025-11-28_14-28-04
47,smerte_compressed.wav,negative,smerte,oprørt,babble_86.wav,kæle_reversed.wav,ferie_reversed.wav,,,,,0,16,16,16,right,0.4694740772247314,right,1,oprørt,smerte,5567,1,2025-11-28_14-28-04
90,vindue_compressed.wav,neutral,vindue,pude,babble_23.wav,konge_reversed.wav,talent_reversed.wav,,,,,0,17,17,17,left,0.994354009628296,left,1,vindue,pude,5567,1,2025-11-28_14-28-04
35,voldsom_compressed.wav,negative,voldsom,ydmyg,babble_69.wav,plakat_reversed.wav,respekt_reversed.wav,,,,,0,18,18,18,left,0.6385948657989502,left,1,voldsom,ydmyg,5567,1,2025-11-28_14-28-04
6,lækker_compressed.wav,positive,lækker,nonne,babble_25.wav,latter_reversed.wav,ankel_reversed.wav,,,,,0,19,19,19,left,2.376016139984131,left,1,lækker,nonne,5567,1,2025-11-28_14-28-04
88,ønske_compressed.wav,positive,ønske,dæmpet,babble_11.wav,modgang_reversed.wav,violin_reversed.wav,,,,,0,20,20,20,left,0.6698691844940186,left,1,ønske,dæmpet,5567,1,2025-11-28_14-28-04
45,forår_compressed.wav,positive,forår,gidsel,babble_62.wav,modgang_reversed.wav,ørken_reversed.wav,,,,,0,21,21,21,left,0.6199100017547607,left,1,forår,gidsel,5567,1,2025-11-28_14-28-04
68,hjerte_compressed.wav,positive,hjerte,fremskridt,babble_35.wav,statue_reversed.wav,lampe_reversed.wav,,,,,0,22,22,22,left,1.221649169921875,left,1,hjerte,fremskridt,5567,1,2025-11-28_14-28-04
42,festlig_compressed.wav,positive,festlig,rotte,babble_52.wav,sikker_reversed.wav,utro_reversed.wav,,,,,0,23,23,23,right,1.2530560493469238,right,1,rotte,festlig,5567,1,2025-11-28_14-28-04
59,varme_compressed.wav,positive,varme,festlig,babble_24.wav,kiste_reversed.wav,ørken_reversed.wav,,,,,0,24,24,24,left,0.7614290714263916,left,1,varme,festlig,5567,1,2025-11-28_14-28-04
75,frihed_compressed.wav,positive,frihed,tortur,babble_34.wav,dæmpet_reversed.wav,konkurs_reversed.wav,,,,,0,25,25,25,left,1.303786039352417,left,1,frihed,tortur,5567,1,2025-11-28_14-28-04
89,violin_compressed.wav,neutral,violin,ensom,babble_45.wav,skyldig_reversed.wav,putte_reversed.wav,,,,,0,26,26,26,right,0.5157020092010498,right,1,ensom,violin,5567,1,2025-11-28_14-28-04
53,redskab_compressed.wav,neutral,redskab,taber,babble_63.wav,genert_reversed.wav,utro_reversed.wav,,,,,0,27,27,27,left,1.768202781677246,left,1,redskab,taber,5567,1,2025-11-28_14-28-04
4,smerte_compressed.wav,negative,smerte,glæde,babble_80.wav,kage_reversed.wav,tilfreds_reversed.wav,,,,,0,28,28,28,right,0.3450489044189453,right,1,glæde,smerte,5567,1,2025-11-28_14-28-04
21,måned_compressed.wav,neutral,måned,slagtning,babble_30.wav,ketchup_reversed.wav,måned_reversed.wav,,,,,0,29,29,29,left,0.5892140865325928,left,1,måned,slagtning,5567,1,2025-11-28_14-28-04
40,maling_compressed.wav,neutral,maling,slagtning,babble_1.wav,ørken_reversed.wav,gratis_reversed.wav,,,,,0,30,30,30,left,0.6763110160827637,left,1,maling,slagtning,5567,1,2025-11-28_14-28-04
1,ankel_compressed.wav,neutral,ankel,hage,babble_46.wav,brutal_reversed.wav,redskab_reversed.wav,,,,,0,31,31,31,right,1.2742271423339844,right,1,hage,ankel,5567,1,2025-11-28_14-28-04
30,frelser_compressed.wav,positive,frelser,hage,babble_61.wav,viden_reversed.wav,rådden_reversed.wav,,,,,0,32,32,32,right,0.5061829090118408,right,1,hage,frelser,5567,1,2025-11-28_14-28-04
66,ferie_compressed.wav,positive,ferie,beskidt,babble_25.wav,pjece_reversed.wav,fængsel_reversed.wav,,,,,0,33,33,33,left,2.002371072769165,right,0,beskidt,ferie,5567,1,2025-11-28_14-28-04
83,ugle_compressed.wav,neutral,ugle,udskud,babble_75.wav,lyse_reversed.wav,voldtægt_reversed.wav,,,,,0,34,34,34,right,0.9473910331726074,right,1,udskud,ugle,5567,1,2025-11-28_14-28-04
38,gidsel_compressed.wav,negative,gidsel,heldig,babble_85.wav,salat_reversed.wav,illoyal_reversed.wav,,,,,0,35,35,35,right,0.3728809356689453,right,1,heldig,gidsel,5567,1,2025-11-28_14-28-04
39,grusom_compressed.wav,negative,grusom,penge,babble_17.wav,forpint_reversed.wav,gratis_reversed.wav,,,,,0,36,36,36,left,0.5225858688354492,left,1,grusom,penge,5567,1,2025-11-28_14-28-04
28,forkert_compressed.wav,negative,forkert,fængsel,babble_44.wav,regnbue_reversed.wav,drukne_reversed.wav,,,,,0,37,37,37,right,0.8581888675689697,right,1,fængsel,forkert,5567,1,2025-11-28_14-28-04
64,skade_compressed.wav,negative,skade,fremskridt,babble_43.wav,hjerte_reversed.wav,ensom_reversed.wav,,,,,0,38,38,38,right,3.864512920379639,right,1,fremskridt,skade,5567,1,2025-11-28_14-28-04
8,ydmyg_compressed.wav,neutral,ydmyg,kedel,babble_99.wav,opstemt_reversed.wav,leder_reversed.wav,,,,,0,39,39,39,right,1.612618923187256,right,1,kedel,ydmyg,5567,1,2025-11-28_14-28-04
60,beundret_compressed.wav,positive,beundret,sindssyg,babble_80.wav,poesi_reversed.wav,ønske_reversed.wav,,,,,0,40,40,40,left,0.5353918075561523,left,1,beundret,sindssyg,5567,1,2025-11-28_14-28-04
22,marked_compressed.wav,neutral,marked,violin,babble_81.wav,bifald_reversed.wav,grimme_reversed.wav,,,,,0,41,41,41,left,0.9500150680541992,left,1,marked,violin,5567,1,2025-11-28_14-28-04
72,penge_compressed.wav,positive,penge,spise,babble_14.wav,mester_reversed.wav,skade_reversed.wav,,,,,0,42,42,42,left,0.9770488739013672,left,1,penge,spise,5567,1,2025-11-28_14-28-04
57,morder_compressed.wav,negative,morder,lærer,babble_48.wav,hånlig_reversed.wav,kujon_reversed.wav,,,,,0,43,43,43,right,0.517941951751709,right,1,lærer,morder,5567,1,2025-11-28_14-28-04
55,metal_compressed.wav,neutral,metal,morder,babble_51.wav,viden_reversed.wav,smerte_reversed.wav,,,,,0,44,44,44,right,0.5017530918121338,right,1,morder,metal,5567,1,2025-11-28_14-28-04
77,bryllup_compressed.wav,positive,bryllup,skyldig,babble_6.wav,baby_reversed.wav,rabies_reversed.wav,,,,,0,45,45,45,left,2.6654129028320312,left,1,bryllup,skyldig,5567,1,2025-11-28_14-28-04
84,pude_compressed.wav,positive,pude,genert,babble_3.wav,engel_reversed.wav,violin_reversed.wav,,,,,0,46,46,46,left,0.4786648750305176,left,1,pude,genert,5567,1,2025-11-28_14-28-04
79,kujon_compressed.wav,negative,kujon,hage,babble_22.wav,ketchup_reversed.wav,vindue_reversed.wav,,,,,0,47,47,47,left,1.54118013381958,right,0,hage,kujon,5567,1,2025-11-28_14-28-04
50,passion_compressed.wav,positive,passion,borddug,babble_22.wav,sygdom_reversed.wav,vandal_reversed.wav,,,,,0,48,48,48,left,1.0093460083007812,left,1,passion,borddug,5567,1,2025-11-28_14-28-04
63,ønske_compressed.wav,positive,ønske,frygtsom,babble_6.wav,oprør_reversed.wav,viden_reversed.wav,,,,,0,49,49,49,right,0.3495500087738037,right,1,frygtsom,ønske,5567,1,2025-11-28_14-28-04
14,intim_compressed.wav,positive,intim,genstand,babble_51.wav,kedel_reversed.wav,grusom_reversed.wav,,,,,0,50,50,50,right,0.5909860134124756,right,1,genstand,intim,5567,1,2025-11-28_14-28-04
74,kugle_compressed.wav,neutral,kugle,tumor,babble_39.wav,søsyg_reversed.wav,putte_reversed.wav,,,,,0,51,51,51,right,0.6011121273040771,right,1,tumor,kugle,5567,1,2025-11-28_14-28-04
82,ugle_compressed.wav,neutral,ugle,udskud,babble_83.wav,venlig_reversed.wav,gade_reversed.wav,,,,,0,52,52,52,left,0.7300369739532471,left,1,ugle,udskud,5567,1,2025-11-28_14-28-04
20,vinde_compressed.wav,positive,vinde,humor,babble_82.wav,engel_reversed.wav,konkurs_reversed.wav,,,,,0,53,53,53,right,0.9817948341369628,right,1,humor,vinde,5567,1,2025-11-28_14-28-04
5,pervers_compressed.wav,negative,pervers,hader,babble_90.wav,succes_reversed.wav,fremskridt_reversed.wav,,,,,0,54,54,54,right,0.7387721538543701,right,1,hader,pervers,5567,1,2025-11-28_14-28-04
62,redskab_compressed.wav,neutral,redskab,lampe,babble_34.wav,ketchup_reversed.wav,tilfreds_reversed.wav,,,,,0,55,55,55,left,0.600836992263794,left,1,redskab,lampe,5567,1,2025-11-28_14-28-04
2,heldig_compressed.wav,positive,heldig,lækker,babble_47.wav,maling_reversed.wav,morder_reversed.wav,,,,,0,56,56,56,right,1.8418409824371336,right,1,lækker,heldig,5567,1,2025-11-28_14-28-04
78,voldsom_compressed.wav,negative,voldsom,bryllup,babble_54.wav,djævel_reversed.wav,dæmon_reversed.wav,,,,,0,57,57,57,right,0.433103084564209,right,1,bryllup,voldsom,5567,1,2025-11-28_14-28-04
71,hårnål_compressed.wav,neutral,hårnål,voldsom,babble_78.wav,fiasko_reversed.wav,grimme_reversed.wav,,,,,0,58,58,58,right,1.309413194656372,right,1,voldsom,hårnål,5567,1,2025-11-28_14-28-04
13,kontor_compressed.wav,neutral,kontor,udskud,babble_13.wav,hader_reversed.wav,rotte_reversed.wav,,,,,0,59,59,59,left,0.5914011001586914,left,1,kontor,udskud,5567,1,2025-11-28_14-28-04
54,bange_compressed.wav,negative,bange,genert,babble_49.wav,patent_reversed.wav,pervers_reversed.wav,,,,,0,60,60,60,left,0.600355863571167,left,1,bange,genert,5567,1,2025-11-28_14-28-04
23,ugle_compressed.wav,neutral,ugle,avis,babble_96.wav,gratis_reversed.wav,albue_reversed.wav,,,,,0,61,61,61,left,0.7423038482666016,left,1,ugle,avis,5567,1,2025-11-28_14-28-04
51,fjendtlig_compressed.wav,negative,fjendtlig,opstemt,babble_61.wav,patent_reversed.wav,baby_reversed.wav,,,,,0,62,62,62,right,1.1425158977508545,right,1,opstemt,fjendtlig,5567,1,2025-11-28_14-28-04
76,passion_compressed.wav,positive,passion,grimme,babble_83.wav,nonne_reversed.wav,boble_reversed.wav,,,,,0,63,63,63,left,0.6956980228424072,left,1,passion,grimme,5567,1,2025-11-28_14-28-04
44,oprør_compressed.wav,negative,oprør,jubel,babble_64.wav,mester_reversed.wav,heldig_reversed.wav,,,,,0,64,64,64,right,4.149467945098877,right,1,jubel,oprør,5567,1,2025-11-28_14-28-04
49,borddug_compressed.wav,neutral,borddug,luksus,babble_48.wav,himmel_reversed.wav,kugle_reversed.wav,,,,,0,65,65,65,left,2.580055952072144,left,1,borddug,luksus,5567,1,2025-11-28_14-28-04
36,bombe_compressed.wav,negative,bombe,flirte,babble_20.wav,grimme_reversed.wav,jubel_reversed.wav,,,,,0,66,66,66,right,0.7983429431915283,right,1,flirte,bombe,5567,1,2025-11-28_14-28-04
58,kvæles_compressed.wav,negative,kvæles,tumor,babble_74.wav,ønske_reversed.wav,ørken_reversed.wav,,,,,0,67,67,67,right,1.258908987045288,right,1,tumor,kvæles,5567,1,2025-11-28_14-28-04
52,sindssyg_compressed.wav,negative,sindssyg,skyldig,babble_71.wav,bange_reversed.wav,tortur_reversed.wav,,,,,0,68,68,68,left,0.5098369121551514,left,1,sindssyg,skyldig,5567,1,2025-11-28_14-28-04
16,kærtegn_compressed.wav,positive,kærtegn,kedel,babble_70.wav,cirkel_reversed.wav,slagtning_reversed.wav,,,,,0,69,69,69,left,0.5588011741638184,left,1,kærtegn,kedel,5567,1,2025-11-28_14-28-04
24,brænde_compressed.wav,negative,brænde,heldig,babble_26.wav,voldtægt_reversed.wav,ugle_reversed.wav,,,,,0,70,70,70,right,0.9159591197967528,right,1,heldig,brænde,5567,1,2025-11-28_14-28-04
70,brutal_compressed.wav,negative,brutal,ære,babble_74.wav,ankel_reversed.wav,marked_reversed.wav,,,,,0,71,71,71,right,0.941093921661377,right,1,ære,brutal,5567,1,2025-11-28_14-28-04
87,metal_compressed.wav,neutral,metal,albue,babble_96.wav,lampe_reversed.wav,gidsel_reversed.wav,,,,,0,72,72,72,left,0.6408910751342773,left,1,metal,albue,5567,1,2025-11-28_14-28-04
34,papir_compressed.wav,neutral,papir,affald,babble_16.wav,violin_reversed.wav,jubel_reversed.wav,,,,,0,73,73,73,left,0.6913509368896484,left,1,papir,affald,5567,1,2025-11-28_14-28-04
9,papir_compressed.wav,neutral,papir,hånlig,babble_4.wav,syndig_reversed.wav,skade_reversed.wav,,,,,0,74,74,74,right,0.6106410026550293,right,1,hånlig,papir,5567,1,2025-11-28_14-28-04
27,lærer_compressed.wav,neutral,lærer,voldtægt,babble_64.wav,kiste_reversed.wav,utro_reversed.wav,,,,,0,75,75,75,right,0.6342439651489258,right,1,voldtægt,lærer,5567,1,2025-11-28_14-28-04
25,hader_compressed.wav,negative,hader,engel,babble_67.wav,smerte_reversed.wav,tilfreds_reversed.wav,,,,,0,76,76,76,left,0.9854738712310792,left,1,hader,engel,5567,1,2025-11-28_14-28-04
73,djævel_compressed.wav,negative,djævel,frihed,babble_2.wav,mave_reversed.wav,lampe_reversed.wav,,,,,0,77,77,77,left,1.8420209884643557,right,0,frihed,djævel,5567,1,2025-11-28_14-28-04
43,gidsel_compressed.wav,negative,gidsel,vandal,babble_44.wav,fedme_reversed.wav,morder_reversed.wav,,,,,0,78,78,78,left,0.9772450923919678,left,1,gidsel,vandal,5567,1,2025-11-28_14-28-04
61,grusom_compressed.wav,negative,grusom,lækker,babble_60.wav,mester_reversed.wav,redskab_reversed.wav,,,,,0,79,79,79,right,0.5512731075286865,right,1,lækker,grusom,5567,1,2025-11-28_14-28-04
26,regnbue_compressed.wav,positive,regnbue,knude,babble_94.wav,sygdom_reversed.wav,rotte_reversed.wav,,,,,0,80,80,80,left,1.3043780326843262,left,1,regnbue,knude,5567,1,2025-11-28_14-28-04
86,kage_compressed.wav,positive,kage,ankel,babble_9.wav,pude_reversed.wav,fjendtlig_reversed.wav,,,,,0,81,81,81,left,0.3692200183868408,left,1,kage,ankel,5567,1,2025-11-28_14-28-04
33,ankel_compressed.wav,neutral,ankel,leder,babble_81.wav,ønske_reversed.wav,bifald_reversed.wav,,,,,0,82,82,82,right,0.3591189384460449,right,1,leder,ankel,5567,1,2025-11-28_14-28-04
46,borddug_compressed.wav,neutral,borddug,traume,babble_29.wav,maling_reversed.wav,drukne_reversed.wav,,,,,0,83,83,83,left,0.3389790058135986,left,1,borddug,traume,5567,1,2025-11-28_14-28-04
67,rigdom_compressed.wav,positive,rigdom,fase,babble_37.wav,salat_reversed.wav,pjece_reversed.wav,,,,,0,84,84,84,right,1.8616290092468264,left,0,rigdom,fase,5567,1,2025-11-28_14-28-04
57,latter_compressed.wav,positive,latter,spænding,babble_67.wav,trofæ_reversed.wav,kontor_reversed.wav,0.0,0.0,0.0,0.0,0,-1,-1,0,right,12.187562942504885,right,1,spænding,latter,1119,1,2025-11-28_15-35-59
45,penge_compressed.wav,positive,penge,varme,babble_73.wav,metal_reversed.wav,respekt_reversed.wav,0.0,1.0,1.0,1.0,0,-1,-1,0,left,1.812169075012207,left,1,penge,varme,1119,1,2025-11-28_15-35-59
19,ketchup_compressed.wav,neutral,ketchup,magisk,babble_33.wav,metal_reversed.wav,albue_reversed.wav,0.0,2.0,2.0,2.0,0,-1,-1,0,left,0.679541826248169,left,1,ketchup,magisk,1119,1,2025-11-28_15-35-59
32,kage_compressed.wav,positive,kage,rigdom,babble_84.wav,smerte_reversed.wav,skammel_reversed.wav,0.0,3.0,3.0,3.0,0,-1,-1,0,left,0.4386708736419678,left,1,kage,rigdom,1119,1,2025-11-28_15-35-59
78,diamant_compressed.wav,positive,diamant,kugle,babble_10.wav,museum_reversed.wav,maling_reversed.wav,0.0,4.0,4.0,4.0,0,-1,-1,0,left,0.674278974533081,left,1,diamant,kugle,1119,1,2025-11-28_15-35-59
73,syndig_compressed.wav,negative,syndig,redning,babble_70.wav,festlig_reversed.wav,kedel_reversed.wav,,,,,0,0,0,0,left,0.8920400142669678,left,1,syndig,redning,1119,1,2025-11-28_15-35-59
7,lyse_compressed.wav,positive,lyse,heldig,babble_28.wav,gidsel_reversed.wav,passion_reversed.wav,,,,,0,1,1,1,left,0.5892550945281982,left,1,lyse,heldig,1119,1,2025-11-28_15-35-59
74,sandhed_compressed.wav,positive,sandhed,motor,babble_84.wav,nonne_reversed.wav,succes_reversed.wav,,,,,0,2,2,2,left,0.4627890586853027,left,1,sandhed,motor,1119,1,2025-11-28_15-35-59
10,spænding_compressed.wav,positive,spænding,viden,babble_89.wav,hånlig_reversed.wav,banner_reversed.wav,,,,,0,3,3,3,right,0.4668941497802734,right,1,viden,spænding,1119,1,2025-11-28_15-35-59
8,ugle_compressed.wav,neutral,ugle,baby,babble_36.wav,blomstre_reversed.wav,dæmpet_reversed.wav,,,,,0,4,4,4,right,0.957854986190796,right,1,baby,ugle,1119,1,2025-11-28_15-35-59
75,syndig_compressed.wav,negative,syndig,fremskridt,babble_11.wav,sindssyg_reversed.wav,venlig_reversed.wav,,,,,0,5,5,5,left,1.2438039779663086,left,1,syndig,fremskridt,1119,1,2025-11-28_15-35-59
61,forår_compressed.wav,positive,forår,kujon,babble_88.wav,fjendtlig_reversed.wav,giftig_reversed.wav,,,,,0,6,6,6,left,0.3485689163208008,left,1,forår,kujon,1119,1,2025-11-28_15-35-59
38,mave_compressed.wav,neutral,mave,afskyr,babble_91.wav,voldtægt_reversed.wav,succes_reversed.wav,,,,,0,7,7,7,right,0.7272439002990723,right,1,afskyr,mave,1119,1,2025-11-28_15-35-59
89,sandhed_compressed.wav,positive,sandhed,himmel,babble_56.wav,redning_reversed.wav,patent_reversed.wav,,,,,0,8,8,8,right,0.5360591411590576,right,1,himmel,sandhed,1119,1,2025-11-28_15-35-59
87,finger_compressed.wav,neutral,finger,frelser,babble_15.wav,ønske_reversed.wav,hjerte_reversed.wav,,,,,0,9,9,9,left,2.4021451473236084,left,1,finger,frelser,1119,1,2025-11-28_15-35-59
28,jubel_compressed.wav,positive,jubel,beundret,babble_46.wav,blodig_reversed.wav,tumor_reversed.wav,,,,,0,10,10,10,right,1.1072018146514893,right,1,beundret,jubel,1119,1,2025-11-28_15-35-59
86,redskab_compressed.wav,neutral,redskab,enhed,babble_42.wav,frihed_reversed.wav,metal_reversed.wav,,,,,0,11,11,11,left,0.5948729515075684,left,1,redskab,enhed,1119,1,2025-11-28_15-35-59
64,nonsens_compressed.wav,neutral,nonsens,regnbue,babble_55.wav,sexet_reversed.wav,lærer_reversed.wav,,,,,0,12,12,12,left,1.2236111164093018,left,1,nonsens,regnbue,1119,1,2025-11-28_15-35-59
79,lyse_compressed.wav,positive,lyse,modgang,babble_63.wav,respekt_reversed.wav,sexet_reversed.wav,,,,,0,13,13,13,left,0.3719880580902099,left,1,lyse,modgang,1119,1,2025-11-28_15-35-59
26,gaffel_compressed.wav,neutral,gaffel,drukne,babble_52.wav,rabies_reversed.wav,hånlig_reversed.wav,,,,,0,14,14,14,right,1.0277328491210938,right,1,drukne,gaffel,1119,1,2025-11-28_15-35-59
69,skade_compressed.wav,negative,skade,stjerne,babble_60.wav,morder_reversed.wav,nonsens_reversed.wav,,,,,0,15,15,15,left,0.7456319332122803,right,0,stjerne,skade,1119,1,2025-11-28_15-35-59
48,tortur_compressed.wav,negative,tortur,nedbrud,babble_10.wav,opstemt_reversed.wav,rådden_reversed.wav,,,,,0,16,16,16,left,0.6646361351013184,left,1,tortur,nedbrud,1119,1,2025-11-28_15-35-59
55,genert_compressed.wav,neutral,genert,motor,babble_88.wav,søsyg_reversed.wav,lampe_reversed.wav,,,,,0,17,17,17,left,0.4359841346740722,left,1,genert,motor,1119,1,2025-11-28_15-35-59
90,engel_compressed.wav,positive,engel,forpint,babble_45.wav,kage_reversed.wav,kujon_reversed.wav,,,,,0,18,18,18,right,1.083940029144287,left,0,engel,forpint,1119,1,2025-11-28_15-35-59
36,konkurs_compressed.wav,negative,konkurs,tortur,babble_4.wav,fase_reversed.wav,modgang_reversed.wav,,,,,0,19,19,19,right,0.8387417793273926,right,1,tortur,konkurs,1119,1,2025-11-28_15-35-59
14,vandal_compressed.wav,negative,vandal,nonsens,babble_93.wav,konkurs_reversed.wav,kugle_reversed.wav,,,,,0,20,20,20,right,1.3496692180633545,right,1,nonsens,vandal,1119,1,2025-11-28_15-35-59
77,fjendtlig_compressed.wav,negative,fjendtlig,tumor,babble_32.wav,viden_reversed.wav,blomstre_reversed.wav,,,,,0,21,21,21,right,1.0930898189544678,right,1,tumor,fjendtlig,1119,1,2025-11-28_15-35-59
62,drukne_compressed.wav,negative,drukne,borddug,babble_43.wav,finger_reversed.wav,kande_reversed.wav,,,,,0,22,22,22,right,1.9388010501861568,right,1,borddug,drukne,1119,1,2025-11-28_15-35-59
39,gidsel_compressed.wav,negative,gidsel,himlen,babble_40.wav,sollys_reversed.wav,taber_reversed.wav,,,,,0,23,23,23,right,1.1722691059112549,right,1,himlen,gidsel,1119,1,2025-11-28_15-35-59
70,grimme_compressed.wav,negative,grimme,afvist,babble_74.wav,passion_reversed.wav,lyse_reversed.wav,,,,,0,24,24,24,right,1.512542963027954,right,1,afvist,grimme,1119,1,2025-11-28_15-35-59
56,taxa_compressed.wav,neutral,taxa,ærlig,babble_67.wav,genstand_reversed.wav,nedbrud_reversed.wav,,,,,0,25,25,25,left,0.7629342079162598,left,1,taxa,ærlig,1119,1,2025-11-28_15-35-59
20,misbrug_compressed.wav,negative,misbrug,himmel,babble_40.wav,spise_reversed.wav,salat_reversed.wav,,,,,0,26,26,26,right,0.9536018371582032,right,1,himmel,misbrug,1119,1,2025-11-28_15-35-59
6,offer_compressed.wav,negative,offer,ønske,babble_61.wav,pude_reversed.wav,krise_reversed.wav,,,,,0,27,27,27,right,0.8443529605865479,right,1,ønske,offer,1119,1,2025-11-28_15-35-59
71,væmmes_compressed.wav,negative,væmmes,skønhed,babble_67.wav,accept_reversed.wav,himmel_reversed.wav,,,,,0,28,28,28,left,0.8336479663848877,left,1,væmmes,skønhed,1119,1,2025-11-28_15-35-59
53,violin_compressed.wav,neutral,violin,kæle,babble_94.wav,søsyg_reversed.wav,fedme_reversed.wav,,,,,0,29,29,29,left,1.3978371620178225,right,0,kæle,violin,1119,1,2025-11-28_15-35-59
35,morder_compressed.wav,negative,morder,smerte,babble_6.wav,spænding_reversed.wav,diamant_reversed.wav,,,,,0,30,30,30,right,0.6389150619506836,right,1,smerte,morder,1119,1,2025-11-28_15-35-59
22,redning_compressed.wav,positive,redning,affald,babble_31.wav,lyse_reversed.wav,sandhed_reversed.wav,,,,,0,31,31,31,right,0.599510908126831,right,1,affald,redning,1119,1,2025-11-28_15-35-59
2,vandfald_compressed.wav,positive,vandfald,ørken,babble_37.wav,putte_reversed.wav,konge_reversed.wav,,,,,0,32,32,32,right,1.2722880840301514,right,1,ørken,vandfald,1119,1,2025-11-28_15-35-59
3,finger_compressed.wav,neutral,finger,glæde,babble_48.wav,rædsel_reversed.wav,himmel_reversed.wav,,,,,0,33,33,33,left,0.9390139579772948,left,1,finger,glæde,1119,1,2025-11-28_15-35-59
52,flirte_compressed.wav,positive,flirte,varme,babble_65.wav,ørken_reversed.wav,krise_reversed.wav,,,,,0,34,34,34,right,1.0869839191436768,right,1,varme,flirte,1119,1,2025-11-28_15-35-59
42,poesi_compressed.wav,neutral,poesi,accept,babble_56.wav,spænding_reversed.wav,jubel_reversed.wav,,,,,0,35,35,35,right,0.7679030895233154,right,1,accept,poesi,1119,1,2025-11-28_15-35-59
60,luksus_compressed.wav,positive,luksus,kvæles,babble_47.wav,oprørt_reversed.wav,lampe_reversed.wav,,,,,0,36,36,36,right,0.6658411026000977,right,1,kvæles,luksus,1119,1,2025-11-28_15-35-59
25,luksus_compressed.wav,positive,luksus,putte,babble_55.wav,sollys_reversed.wav,kande_reversed.wav,,,,,0,37,37,37,left,0.6169528961181641,left,1,luksus,putte,1119,1,2025-11-28_15-35-59
15,vindue_compressed.wav,neutral,vindue,violin,babble_58.wav,grusom_reversed.wav,maling_reversed.wav,,,,,0,38,38,38,left,0.6126339435577393,left,1,vindue,violin,1119,1,2025-11-28_15-35-59
67,vinde_compressed.wav,positive,vinde,festlig,babble_87.wav,salat_reversed.wav,skyldig_reversed.wav,,,,,0,39,39,39,right,0.8073880672454834,right,1,festlig,vinde,1119,1,2025-11-28_15-35-59
17,sygdom_compressed.wav,negative,sygdom,salat,babble_9.wav,rådden_reversed.wav,slagtning_reversed.wav,,,,,0,40,40,40,left,0.5310149192810059,left,1,sygdom,salat,1119,1,2025-11-28_15-35-59
81,vindue_compressed.wav,neutral,vindue,ære,babble_27.wav,gaffel_reversed.wav,violin_reversed.wav,,,,,0,41,41,41,right,0.8762679100036621,right,1,ære,vindue,1119,1,2025-11-28_15-35-59
51,brænde_compressed.wav,negative,brænde,bryllup,babble_24.wav,frygtsom_reversed.wav,fremskridt_reversed.wav,,,,,0,42,42,42,left,0.7780370712280273,left,1,brænde,bryllup,1119,1,2025-11-28_15-35-59
30,modgang_compressed.wav,negative,modgang,vinde,babble_85.wav,brænde_reversed.wav,mester_reversed.wav,,,,,0,43,43,43,left,1.3398089408874512,right,0,vinde,modgang,1119,1,2025-11-28_15-35-59
83,kontor_compressed.wav,neutral,kontor,leder,babble_47.wav,skyldig_reversed.wav,enhed_reversed.wav,,,,,0,44,44,44,left,0.403033971786499,left,1,kontor,leder,1119,1,2025-11-28_15-35-59
65,pude_compressed.wav,positive,pude,putte,babble_0.wav,kage_reversed.wav,ankel_reversed.wav,,,,,0,45,45,45,left,0.7558908462524414,left,1,pude,putte,1119,1,2025-11-28_15-35-59
29,viden_compressed.wav,positive,viden,giftig,babble_67.wav,avis_reversed.wav,oprørt_reversed.wav,,,,,0,46,46,46,left,0.7889590263366699,left,1,viden,giftig,1119,1,2025-11-28_15-35-59
63,morder_compressed.wav,negative,morder,bygning,babble_26.wav,lampe_reversed.wav,brænde_reversed.wav,,,,,0,47,47,47,left,0.4879450798034668,left,1,morder,bygning,1119,1,2025-11-28_15-35-59
72,kedel_compressed.wav,neutral,kedel,misbrug,babble_44.wav,nonsens_reversed.wav,trofæ_reversed.wav,,,,,0,48,48,48,right,0.8352890014648438,right,1,misbrug,kedel,1119,1,2025-11-28_15-35-59
12,frygtsom_compressed.wav,negative,frygtsom,kæle,babble_83.wav,natur_reversed.wav,borddug_reversed.wav,,,,,0,49,49,49,right,0.8003690242767334,right,1,kæle,frygtsom,1119,1,2025-11-28_15-35-59
46,bange_compressed.wav,negative,bange,pervers,babble_19.wav,forpint_reversed.wav,hjerte_reversed.wav,,,,,0,50,50,50,left,0.4347720146179199,left,1,bange,pervers,1119,1,2025-11-28_15-35-59
4,grusom_compressed.wav,negative,grusom,mester,babble_73.wav,lærer_reversed.wav,røver_reversed.wav,,,,,0,51,51,51,right,0.4257259368896484,right,1,mester,grusom,1119,1,2025-11-28_15-35-59
58,kugle_compressed.wav,neutral,kugle,diamant,babble_42.wav,plakat_reversed.wav,affald_reversed.wav,,,,,0,52,52,52,left,1.0345478057861328,left,1,kugle,diamant,1119,1,2025-11-28_15-35-59
76,talent_compressed.wav,positive,talent,sæde,babble_79.wav,metal_reversed.wav,giftig_reversed.wav,,,,,0,53,53,53,right,1.1724801063537598,right,1,sæde,talent,1119,1,2025-11-28_15-35-59
34,pjece_compressed.wav,neutral,pjece,intim,babble_82.wav,natur_reversed.wav,gave_reversed.wav,,,,,0,54,54,54,left,0.6870341300964355,left,1,pjece,intim,1119,1,2025-11-28_15-35-59
82,festlig_compressed.wav,positive,festlig,sæde,babble_77.wav,slagtning_reversed.wav,motor_reversed.wav,,,,,0,55,55,55,left,1.579759120941162,left,1,festlig,sæde,1119,1,2025-11-28_15-35-59
40,avis_compressed.wav,neutral,avis,kærtegn,babble_94.wav,bange_reversed.wav,bifald_reversed.wav,,,,,0,56,56,56,left,0.4840869903564453,left,1,avis,kærtegn,1119,1,2025-11-28_15-35-59
27,engel_compressed.wav,positive,engel,smerte,babble_58.wav,talent_reversed.wav,brænde_reversed.wav,,,,,0,57,57,57,right,1.0365819931030271,right,1,smerte,engel,1119,1,2025-11-28_15-35-59
1,afvist_compressed.wav,negative,afvist,nøgle,babble_86.wav,taxa_reversed.wav,sejre_reversed.wav,,,,,0,58,58,58,right,0.5776979923248291,right,1,nøgle,afvist,1119,1,2025-11-28_15-35-59
85,genstand_compressed.wav,neutral,genstand,rådden,babble_99.wav,traume_reversed.wav,humor_reversed.wav,,,,,0,59,59,59,right,0.5480260848999023,right,1,rådden,genstand,1119,1,2025-11-28_15-35-59
54,tumor_compressed.wav,negative,tumor,baby,babble_25.wav,slagtning_reversed.wav,traume_reversed.wav,,,,,0,60,60,60,left,0.4451260566711426,left,1,tumor,baby,1119,1,2025-11-28_15-35-59
80,nonsens_compressed.wav,neutral,nonsens,maling,babble_29.wav,fiasko_reversed.wav,konkurs_reversed.wav,,,,,0,61,61,61,right,0.7417500019073486,right,1,maling,nonsens,1119,1,2025-11-28_15-35-59
49,frihed_compressed.wav,positive,frihed,nonsens,babble_3.wav,væmmes_reversed.wav,lækker_reversed.wav,,,,,0,62,62,62,right,0.5339350700378418,right,1,nonsens,frihed,1119,1,2025-11-28_15-35-59
66,kontor_compressed.wav,neutral,kontor,krise,babble_61.wav,venlig_reversed.wav,giftig_reversed.wav,,,,,0,63,63,63,right,0.5187721252441406,right,1,krise,kontor,1119,1,2025-11-28_15-35-59
68,fiasko_compressed.wav,negative,fiasko,genstand,babble_49.wav,fængsel_reversed.wav,giftig_reversed.wav,,,,,0,64,64,64,left,0.4387738704681396,left,1,fiasko,genstand,1119,1,2025-11-28_15-35-59
13,gaffel_compressed.wav,neutral,gaffel,oprørt,babble_99.wav,vandal_reversed.wav,nonne_reversed.wav,,,,,0,65,65,65,right,1.6130530834197998,right,1,oprørt,gaffel,1119,1,2025-11-28_15-35-59
11,krise_compressed.wav,negative,krise,vindue,babble_86.wav,bygning_reversed.wav,passion_reversed.wav,,,,,0,66,66,66,right,0.7300140857696533,right,1,vindue,krise,1119,1,2025-11-28_15-35-59
33,taxa_compressed.wav,neutral,taxa,frelser,babble_37.wav,gidsel_reversed.wav,selvmord_reversed.wav,,,,,0,67,67,67,right,0.4842450618743896,right,1,frelser,taxa,1119,1,2025-11-28_15-35-59
43,flirte_compressed.wav,positive,flirte,diamant,babble_35.wav,søsyg_reversed.wav,brutal_reversed.wav,,,,,0,68,68,68,right,0.6251440048217773,right,1,diamant,flirte,1119,1,2025-11-28_15-35-59
37,sæde_compressed.wav,neutral,sæde,slave,babble_38.wav,pjece_reversed.wav,himmel_reversed.wav,,,,,0,69,69,69,left,0.8311350345611572,left,1,sæde,slave,1119,1,2025-11-28_15-35-59
5,oprørt_compressed.wav,negative,oprørt,sollys,babble_83.wav,morder_reversed.wav,sindssyg_reversed.wav,,,,,0,70,70,70,right,1.794611930847168,left,0,oprørt,sollys,1119,1,2025-11-28_15-35-59
59,boble_compressed.wav,neutral,boble,bygning,babble_45.wav,kugle_reversed.wav,trofæ_reversed.wav,,,,,0,71,71,71,right,2.258076906204224,right,1,bygning,boble,1119,1,2025-11-28_15-35-59
9,sygdom_compressed.wav,negative,sygdom,fedme,babble_62.wav,rotte_reversed.wav,modgang_reversed.wav,,,,,0,72,72,72,left,1.5136499404907229,left,1,sygdom,fedme,1119,1,2025-11-28_15-35-59
50,respekt_compressed.wav,positive,respekt,hader,babble_93.wav,selvmord_reversed.wav,sygdom_reversed.wav,,,,,0,73,73,73,left,2.650054216384888,left,1,respekt,hader,1119,1,2025-11-28_15-35-59
