signal_type,compression_level,prime_file,correct_word,babbling_file,mask1_file,mask2_file,practice.thisRepN,practice.thisTrialN,practice.thisN,practice.thisIndex,main.thisRepN,main.thisTrialN,main.thisN,main.thisIndex,response_key,rt,trial_outcome,signal_type,compression_level,correct_word,prime_file,babble_duration,Participant ID,Session,date,
present,0.3,offer_compressed.wav,offer,babble_9.wav,kiste_reversed.wav,lækker_reversed.wav,0,0,0,0,0,-1,-1,0,z,6.4954516887664795,Miss,present,0.3,offer,offer_compressed.wav,1.4670287263374449,0810,001,2025-11-26_20-29-23,
absent,0.5,SILENCE,NA,babble_75.wav,pjece_reversed.wav,grimme_reversed.wav,0,1,1,1,0,-1,-1,0,z,0.7218892574310303,Correct Rejection,absent,0.5,NA,SILENCE,1.0528077569620076,0810,001,2025-11-26_20-29-23,
present,0.4,offer_compressed.wav,offer,babble_85.wav,respekt_reversed.wav,genert_reversed.wav,0,2,2,2,0,-1,-1,0,z,0.9029302597045898,Miss,present,0.4,offer,offer_compressed.wav,1.4420590158367719,0810,001,2025-11-26_20-29-23,
absent,0.1,SILENCE,NA,babble_71.wav,gratis_reversed.wav,boble_reversed.wav,0,3,3,3,0,-1,-1,0,z,11.381826400756836,Correct Rejection,absent,0.1,NA,SILENCE,0.9101938410141384,0810,001,2025-11-26_20-29-23,
absent,0.2,SILENCE,NA,babble_86.wav,misbrug_reversed.wav,respekt_reversed.wav,0,4,4,4,0,-1,-1,0,z,1.4113366603851318,Correct Rejection,absent,0.2,NA,SILENCE,0.5247905970990034,0810,001,2025-11-26_20-29-23,
present,0.7,kugle_compressed.wav,kugle,babble_10.wav,konge_reversed.wav,humor_reversed.wav,0,5,5,5,0,-1,-1,0,z,1.6889450550079346,Miss,present,0.7,kugle,kugle_compressed.wav,0.6428732010942746,0810,001,2025-11-26_20-29-23,
present,0.5,bange_compressed.wav,bange,babble_41.wav,skade_reversed.wav,forkert_reversed.wav,0,6,6,6,0,-1,-1,0,z,3.7044761180877686,Miss,present,0.5,bange,bange_compressed.wav,0.6000808828857103,0810,001,2025-11-26_20-29-23,
absent,0.4,SILENCE,NA,babble_2.wav,kontor_reversed.wav,himmel_reversed.wav,0,7,7,7,0,-1,-1,0,z,2.831578016281128,Correct Rejection,absent,0.4,NA,SILENCE,0.8882913723959951,0810,001,2025-11-26_20-29-23,
absent,0.6,SILENCE,NA,babble_29.wav,grusom_reversed.wav,feber_reversed.wav,0,8,8,8,0,-1,-1,0,z,1.655576467514038,Correct Rejection,absent,0.6,NA,SILENCE,0.9482302695075123,0810,001,2025-11-26_20-29-23,
present,0.1,trofæ_compressed.wav,trofæ,babble_62.wav,drukne_reversed.wav,gaffel_reversed.wav,0,9,9,9,0,-1,-1,0,m,1.2283062934875488,Hit,present,0.1,trofæ,trofæ_compressed.wav,0.8635383445671327,0810,001,2025-11-26_20-29-23,
present,0.2,banner_compressed.wav,banner,babble_84.wav,pervers_reversed.wav,ledning_reversed.wav,0,10,10,10,0,-1,-1,0,m,4.618927717208862,Hit,present,0.2,banner,banner_compressed.wav,1.437283821173279,0810,001,2025-11-26_20-29-23,
present,0.6,syndig_compressed.wav,syndig,babble_43.wav,ketchup_reversed.wav,kande_reversed.wav,0,11,11,11,0,-1,-1,0,z,0.740203857421875,Miss,present,0.6,syndig,syndig_compressed.wav,1.0738728107193083,0810,001,2025-11-26_20-29-23,
absent,0.3,SILENCE,NA,babble_37.wav,kande_reversed.wav,vinde_reversed.wav,0,12,12,12,0,-1,-1,0,z,1.472341775894165,Correct Rejection,absent,0.3,NA,SILENCE,1.31456753347423,0810,001,2025-11-26_20-29-23,
absent,0.7,SILENCE,NA,babble_1.wav,skammel_reversed.wav,viden_reversed.wav,0,13,13,13,0,-1,-1,0,z,1.2408673763275146,Correct Rejection,absent,0.7,NA,SILENCE,1.26615362197016,0810,001,2025-11-26_20-29-23,
present,0.2,kiste_compressed.wav,kiste,babble_95.wav,oprør_reversed.wav,passion_reversed.wav,,,,,0,0,0,0,z,0.5726273059844971,Miss,present,0.2,kiste,kiste_compressed.wav,1.2041386498345172,0810,001,2025-11-26_20-29-23,
absent,0.7,SILENCE,NA,babble_68.wav,marked_reversed.wav,djævel_reversed.wav,,,,,0,1,1,1,z,1.4948058128356934,Correct Rejection,absent,0.7,NA,SILENCE,0.6602216326216807,0810,001,2025-11-26_20-29-23,
present,0.2,rædsel_compressed.wav,rædsel,babble_55.wav,smerte_reversed.wav,gratis_reversed.wav,,,,,0,2,2,2,m,1.5266218185424805,Hit,present,0.2,rædsel,rædsel_compressed.wav,0.7795792184266457,0810,001,2025-11-26_20-29-23,
present,0.7,konge_compressed.wav,konge,babble_6.wav,marked_reversed.wav,sygdom_reversed.wav,,,,,0,3,3,3,m,1.8475310802459717,Hit,present,0.7,konge,konge_compressed.wav,1.22468946209134,0810,001,2025-11-26_20-29-23,
absent,0.5,SILENCE,NA,babble_5.wav,succes_reversed.wav,heldig_reversed.wav,,,,,0,4,4,4,z,0.5616898536682129,Correct Rejection,absent,0.5,NA,SILENCE,1.165892253928782,0810,001,2025-11-26_20-29-23,
present,0.6,maling_compressed.wav,maling,babble_92.wav,taber_reversed.wav,ønske_reversed.wav,,,,,0,5,5,5,z,2.878472089767456,Miss,present,0.6,maling,maling_compressed.wav,1.2153472800762304,0810,001,2025-11-26_20-29-23,
present,0.7,gaffel_compressed.wav,gaffel,babble_11.wav,rigdom_reversed.wav,røver_reversed.wav,,,,,0,6,6,6,z,1.5065953731536865,Miss,present,0.7,gaffel,gaffel_compressed.wav,1.1616782677457804,0810,001,2025-11-26_20-29-23,
present,0.1,dollar_compressed.wav,dollar,babble_67.wav,natur_reversed.wav,tilfreds_reversed.wav,,,,,0,7,7,7,m,0.6223495006561279,Hit,present,0.1,dollar,dollar_compressed.wav,0.8618277961108011,0810,001,2025-11-26_20-29-23,
absent,0.7,SILENCE,NA,babble_91.wav,djævel_reversed.wav,forpint_reversed.wav,,,,,0,8,8,8,z,0.850940465927124,Correct Rejection,absent,0.7,NA,SILENCE,1.293382039405179,0810,001,2025-11-26_20-29-23,
absent,0.1,SILENCE,NA,babble_66.wav,fjollet_reversed.wav,brænde_reversed.wav,,,,,0,9,9,9,z,1.1375031471252441,Correct Rejection,absent,0.1,NA,SILENCE,1.168178069969951,0810,001,2025-11-26_20-29-23,
present,0.6,frelser_compressed.wav,frelser,babble_9.wav,nonsens_reversed.wav,sæde_reversed.wav,,,,,0,10,10,10,m,0.9378666877746582,Hit,present,0.6,frelser,frelser_compressed.wav,0.5241636557334465,0810,001,2025-11-26_20-29-23,
present,0.3,gratis_compressed.wav,gratis,babble_3.wav,skønhed_reversed.wav,morder_reversed.wav,,,,,0,11,11,11,m,1.386366844177246,Hit,present,0.3,gratis,gratis_compressed.wav,0.6820082830215494,0810,001,2025-11-26_20-29-23,
absent,0.1,SILENCE,NA,babble_85.wav,talent_reversed.wav,væmmes_reversed.wav,,,,,0,12,12,12,z,0.5241982936859131,Correct Rejection,absent,0.1,NA,SILENCE,0.8817831840658769,0810,001,2025-11-26_20-29-23,
present,0.4,venlig_compressed.wav,venlig,babble_61.wav,konge_reversed.wav,luksus_reversed.wav,,,,,0,13,13,13,z,3.797183036804199,Miss,present,0.4,venlig,venlig_compressed.wav,0.813421784449264,0810,001,2025-11-26_20-29-23,
present,0.5,finger_compressed.wav,finger,babble_63.wav,sollys_reversed.wav,koldbrand_reversed.wav,,,,,0,14,14,14,z,1.4022092819213867,Miss,present,0.5,finger,finger_compressed.wav,0.7740830153305922,0810,001,2025-11-26_20-29-23,
present,0.1,slagtning_compressed.wav,slagtning,babble_48.wav,konge_reversed.wav,misbrug_reversed.wav,,,,,0,15,15,15,m,0.5286297798156738,Hit,present,0.1,slagtning,slagtning_compressed.wav,1.310480828664836,0810,001,2025-11-26_20-29-23,
absent,0.4,SILENCE,NA,babble_7.wav,marked_reversed.wav,blodig_reversed.wav,,,,,0,16,16,16,z,1.158583641052246,Correct Rejection,absent,0.4,NA,SILENCE,1.2281500519357484,0810,001,2025-11-26_20-29-23,
absent,0.3,SILENCE,NA,babble_6.wav,trofæ_reversed.wav,forfald_reversed.wav,,,,,0,17,17,17,z,1.2047860622406006,Correct Rejection,absent,0.3,NA,SILENCE,1.2975698279419037,0810,001,2025-11-26_20-29-23,
present,0.4,papir_compressed.wav,papir,babble_48.wav,mester_reversed.wav,borddug_reversed.wav,,,,,0,18,18,18,m,0.47513628005981445,Hit,present,0.4,papir,papir_compressed.wav,0.6623768543070577,0810,001,2025-11-26_20-29-23,
absent,0.3,SILENCE,NA,babble_56.wav,frygtsom_reversed.wav,engel_reversed.wav,,,,,0,19,19,19,z,0.5984594821929932,Correct Rejection,absent,0.3,NA,SILENCE,1.4552802590452814,0810,001,2025-11-26_20-29-23,
absent,0.2,SILENCE,NA,babble_45.wav,natur_reversed.wav,koldbrand_reversed.wav,,,,,0,20,20,20,z,0.5898237228393555,Correct Rejection,absent,0.2,NA,SILENCE,1.2316438453960799,0810,001,2025-11-26_20-29-23,
present,0.1,krise_compressed.wav,krise,babble_5.wav,bange_reversed.wav,baby_reversed.wav,,,,,0,21,21,21,z,1.0095057487487793,Miss,present,0.1,krise,krise_compressed.wav,1.3440843553397008,0810,001,2025-11-26_20-29-23,
absent,0.5,SILENCE,NA,babble_71.wav,patent_reversed.wav,oprørt_reversed.wav,,,,,0,22,22,22,z,1.054058313369751,Correct Rejection,absent,0.5,NA,SILENCE,1.4809506453855454,0810,001,2025-11-26_20-29-23,
absent,0.4,SILENCE,NA,babble_18.wav,ankel_reversed.wav,mave_reversed.wav,,,,,0,23,23,23,z,1.1335163116455078,Correct Rejection,absent,0.4,NA,SILENCE,0.9150201657257672,0810,001,2025-11-26_20-29-23,
present,0.7,leder_compressed.wav,leder,babble_25.wav,rotte_reversed.wav,natur_reversed.wav,,,,,0,24,24,24,z,1.149064302444458,Miss,present,0.7,leder,leder_compressed.wav,0.5729115336903547,0810,001,2025-11-26_20-29-23,
absent,0.6,SILENCE,NA,babble_46.wav,sygdom_reversed.wav,hader_reversed.wav,,,,,0,25,25,25,m,4.37350058555603,False Alarm,absent,0.6,NA,SILENCE,1.0201381886754444,0810,001,2025-11-26_20-29-23,
present,0.1,ledning_compressed.wav,ledning,babble_41.wav,respekt_reversed.wav,motor_reversed.wav,,,,,0,26,26,26,m,0.6132590770721436,Hit,present,0.1,ledning,ledning_compressed.wav,1.2512551821125077,0810,001,2025-11-26_20-29-23,
absent,0.1,SILENCE,NA,babble_53.wav,accept_reversed.wav,hjerte_reversed.wav,,,,,0,27,27,27,m,1.0035524368286133,False Alarm,absent,0.1,NA,SILENCE,1.2679913186600513,0810,001,2025-11-26_20-29-23,
absent,0.4,SILENCE,NA,babble_22.wav,humor_reversed.wav,trussel_reversed.wav,,,,,0,28,28,28,z,0.5149996280670166,Correct Rejection,absent,0.4,NA,SILENCE,1.1790119789533278,0810,001,2025-11-26_20-29-23,
absent,0.5,SILENCE,NA,babble_60.wav,trussel_reversed.wav,tumor_reversed.wav,,,,,0,29,29,29,z,1.2499184608459473,Correct Rejection,absent,0.5,NA,SILENCE,1.3885650507259495,0810,001,2025-11-26_20-29-23,
present,0.4,minder_compressed.wav,minder,babble_73.wav,frihed_reversed.wav,oprørt_reversed.wav,,,,,0,30,30,30,m,0.8595218658447266,Hit,present,0.4,minder,minder_compressed.wav,1.1787943825912284,0810,001,2025-11-26_20-29-23,
present,0.4,hjerte_compressed.wav,hjerte,babble_42.wav,museum_reversed.wav,bifald_reversed.wav,,,,,0,31,31,31,z,4.272686958312988,Miss,present,0.4,hjerte,hjerte_compressed.wav,0.9048009121146424,0810,001,2025-11-26_20-29-23,
present,0.7,natur_compressed.wav,natur,babble_20.wav,måned_reversed.wav,kontor_reversed.wav,,,,,0,32,32,32,m,0.6055853366851807,Hit,present,0.7,natur,natur_compressed.wav,0.9346392413014206,0810,001,2025-11-26_20-29-23,
absent,0.2,SILENCE,NA,babble_54.wav,putte_reversed.wav,glæde_reversed.wav,,,,,0,33,33,33,z,0.5976717472076416,Correct Rejection,absent,0.2,NA,SILENCE,1.2098412742368425,0810,001,2025-11-26_20-29-23,
absent,0.6,SILENCE,NA,babble_24.wav,nøgle_reversed.wav,bifald_reversed.wav,,,,,0,34,34,34,z,2.1682229042053223,Correct Rejection,absent,0.6,NA,SILENCE,1.000945394450302,0810,001,2025-11-26_20-29-23,
present,0.2,mester_compressed.wav,mester,babble_17.wav,illoyal_reversed.wav,dæmon_reversed.wav,,,,,0,35,35,35,m,0.5010077953338623,Hit,present,0.2,mester,mester_compressed.wav,0.6942051121035213,0810,001,2025-11-26_20-29-23,
present,0.2,festlig_compressed.wav,festlig,babble_53.wav,væmmes_reversed.wav,rigdom_reversed.wav,,,,,0,36,36,36,z,0.7989084720611572,Miss,present,0.2,festlig,festlig_compressed.wav,0.6899745288001045,0810,001,2025-11-26_20-29-23,
present,0.3,salat_compressed.wav,salat,babble_67.wav,dæmpet_reversed.wav,sygdom_reversed.wav,,,,,0,37,37,37,z,2.7378125190734863,Miss,present,0.3,salat,salat_compressed.wav,1.3445507867359572,0810,001,2025-11-26_20-29-23,
present,0.5,brutal_compressed.wav,brutal,babble_75.wav,mave_reversed.wav,marked_reversed.wav,,,,,0,38,38,38,z,2.7412357330322266,Miss,present,0.5,brutal,brutal_compressed.wav,1.0276596409600591,0810,001,2025-11-26_20-29-23,
absent,0.3,SILENCE,NA,babble_56.wav,ensom_reversed.wav,ugle_reversed.wav,,,,,0,39,39,39,z,1.4852006435394287,Correct Rejection,absent,0.3,NA,SILENCE,0.6990559703934187,0810,001,2025-11-26_20-29-23,
absent,0.2,SILENCE,NA,babble_72.wav,sexet_reversed.wav,forkert_reversed.wav,,,,,0,40,40,40,z,1.1292939186096191,Correct Rejection,absent,0.2,NA,SILENCE,1.3045237534873908,0810,001,2025-11-26_20-29-23,
present,0.5,grusom_compressed.wav,grusom,babble_61.wav,forkert_reversed.wav,kugle_reversed.wav,,,,,0,41,41,41,z,2.0274949073791504,Miss,present,0.5,grusom,grusom_compressed.wav,0.7724051141308252,0810,001,2025-11-26_20-29-23,
absent,0.6,SILENCE,NA,babble_16.wav,latter_reversed.wav,knude_reversed.wav,,,,,0,42,42,42,m,3.526238441467285,False Alarm,absent,0.6,NA,SILENCE,1.3244070767418923,0810,001,2025-11-26_20-29-23,
present,0.5,gade_compressed.wav,gade,babble_66.wav,frygtsom_reversed.wav,krise_reversed.wav,,,,,0,43,43,43,m,0.48450422286987305,Hit,present,0.5,gade,gade_compressed.wav,0.7018940056404664,0810,001,2025-11-26_20-29-23,
present,0.5,putte_compressed.wav,putte,babble_94.wav,latter_reversed.wav,opstemt_reversed.wav,,,,,0,44,44,44,z,3.315782070159912,Miss,present,0.5,putte,putte_compressed.wav,0.9357207586738034,0810,001,2025-11-26_20-29-23,
present,0.1,måned_compressed.wav,måned,babble_56.wav,himlen_reversed.wav,natur_reversed.wav,,,,,0,45,45,45,m,0.6881577968597412,Hit,present,0.1,måned,måned_compressed.wav,1.4249359324210813,0810,001,2025-11-26_20-29-23,
absent,0.5,SILENCE,NA,babble_38.wav,syndig_reversed.wav,ensom_reversed.wav,,,,,0,46,46,46,z,1.3391437530517578,Correct Rejection,absent,0.5,NA,SILENCE,0.9189603921151358,0810,001,2025-11-26_20-29-23,
present,0.6,kærtegn_compressed.wav,kærtegn,babble_30.wav,bombe_reversed.wav,forpint_reversed.wav,,,,,0,47,47,47,z,0.6480555534362793,Miss,present,0.6,kærtegn,kærtegn_compressed.wav,0.8790585216585814,0810,001,2025-11-26_20-29-23,
present,0.3,forkert_compressed.wav,forkert,babble_55.wav,dæmpet_reversed.wav,sollys_reversed.wav,,,,,0,48,48,48,z,3.8653717041015625,Miss,present,0.3,forkert,forkert_compressed.wav,1.0385733404888438,0810,001,2025-11-26_20-29-23,
absent,0.5,SILENCE,NA,babble_99.wav,ankel_reversed.wav,giftig_reversed.wav,,,,,0,49,49,49,z,2.4414191246032715,Correct Rejection,absent,0.5,NA,SILENCE,1.0296145703471302,0810,001,2025-11-26_20-29-23,
absent,0.7,SILENCE,NA,babble_1.wav,rådden_reversed.wav,sæde_reversed.wav,,,,,0,50,50,50,z,1.0744309425354004,Correct Rejection,absent,0.7,NA,SILENCE,0.8491335798478884,0810,001,2025-11-26_20-29-23,
absent,0.7,SILENCE,NA,babble_67.wav,gratis_reversed.wav,bygning_reversed.wav,,,,,0,51,51,51,z,2.186723232269287,Correct Rejection,absent,0.7,NA,SILENCE,0.9711963616953251,0810,001,2025-11-26_20-29-23,
present,0.1,sejre_compressed.wav,sejre,babble_74.wav,banner_reversed.wav,kærtegn_reversed.wav,,,,,0,52,52,52,z,2.133094549179077,Miss,present,0.1,sejre,sejre_compressed.wav,1.0134633344849266,0810,001,2025-11-26_20-29-23,
absent,0.7,SILENCE,NA,babble_95.wav,metal_reversed.wav,plakat_reversed.wav,,,,,0,53,53,53,z,1.6987311840057373,Correct Rejection,absent,0.7,NA,SILENCE,0.5231087783002093,0810,001,2025-11-26_20-29-23,
absent,0.2,SILENCE,NA,babble_74.wav,museum_reversed.wav,borddug_reversed.wav,,,,,0,54,54,54,m,0.5391793251037598,False Alarm,absent,0.2,NA,SILENCE,1.079912759111259,0810,001,2025-11-26_20-29-23,
absent,0.4,SILENCE,NA,babble_9.wav,ensom_reversed.wav,gaffel_reversed.wav,,,,,0,55,55,55,z,0.6267135143280029,Correct Rejection,absent,0.4,NA,SILENCE,1.3472800777386706,0810,001,2025-11-26_20-29-23,
present,0.7,diamant_compressed.wav,diamant,babble_84.wav,brænde_reversed.wav,latter_reversed.wav,,,,,0,56,56,56,m,1.363391399383545,Hit,present,0.7,diamant,diamant_compressed.wav,1.1701704757757598,0810,001,2025-11-26_20-29-23,
absent,0.7,SILENCE,NA,babble_22.wav,konge_reversed.wav,skønhed_reversed.wav,,,,,0,57,57,57,z,0.8680005073547363,Correct Rejection,absent,0.7,NA,SILENCE,1.3344727383803303,0810,001,2025-11-26_20-29-23,
present,0.1,bange_compressed.wav,bange,babble_75.wav,pervers_reversed.wav,kujon_reversed.wav,,,,,0,58,58,58,z,0.8447840213775635,Miss,present,0.1,bange,bange_compressed.wav,0.7501003871303953,0810,001,2025-11-26_20-29-23,
absent,0.1,SILENCE,NA,babble_72.wav,luksus_reversed.wav,heldig_reversed.wav,,,,,0,59,59,59,z,1.5033783912658691,Correct Rejection,absent,0.1,NA,SILENCE,0.7862207982935345,0810,001,2025-11-26_20-29-23,
present,0.3,misbrug_compressed.wav,misbrug,babble_36.wav,traume_reversed.wav,glæde_reversed.wav,,,,,0,60,60,60,z,1.1909782886505127,Miss,present,0.3,misbrug,misbrug_compressed.wav,1.2188341552834179,0810,001,2025-11-26_20-29-23,
present,0.2,kage_compressed.wav,kage,babble_69.wav,rigdom_reversed.wav,frihed_reversed.wav,,,,,0,61,61,61,m,0.438906192779541,Hit,present,0.2,kage,kage_compressed.wav,0.6050797731560861,0810,001,2025-11-26_20-29-23,
absent,0.2,SILENCE,NA,babble_35.wav,måned_reversed.wav,spise_reversed.wav,,,,,0,62,62,62,z,0.45143938064575195,Correct Rejection,absent,0.2,NA,SILENCE,1.0855226140357468,0810,001,2025-11-26_20-29-23,
absent,0.2,SILENCE,NA,babble_37.wav,salat_reversed.wav,rotte_reversed.wav,,,,,0,63,63,63,z,0.5813889503479004,Correct Rejection,absent,0.2,NA,SILENCE,0.6886298258882445,0810,001,2025-11-26_20-29-23,
present,0.5,kysse_compressed.wav,kysse,babble_86.wav,trofæ_reversed.wav,drukne_reversed.wav,,,,,0,64,64,64,m,0.4720194339752197,Hit,present,0.5,kysse,kysse_compressed.wav,0.9008713571577667,0810,001,2025-11-26_20-29-23,
absent,0.4,SILENCE,NA,babble_19.wav,spise_reversed.wav,ensom_reversed.wav,,,,,0,65,65,65,z,0.7118721008300781,Correct Rejection,absent,0.4,NA,SILENCE,0.991070588485033,0810,001,2025-11-26_20-29-23,
absent,0.1,SILENCE,NA,babble_33.wav,rabies_reversed.wav,brutal_reversed.wav,,,,,0,66,66,66,z,0.6005814075469971,Correct Rejection,absent,0.1,NA,SILENCE,0.686061706391627,0810,001,2025-11-26_20-29-23,
absent,0.6,SILENCE,NA,babble_42.wav,sandhed_reversed.wav,vandal_reversed.wav,,,,,0,67,67,67,z,1.852787971496582,Correct Rejection,absent,0.6,NA,SILENCE,1.2750557477018198,0810,001,2025-11-26_20-29-23,
present,0.3,kande_compressed.wav,kande,babble_74.wav,fedme_reversed.wav,skammel_reversed.wav,,,,,0,68,68,68,m,0.8386344909667969,Hit,present,0.3,kande,kande_compressed.wav,0.7958418186772664,0810,001,2025-11-26_20-29-23,
absent,0.4,SILENCE,NA,babble_95.wav,drukne_reversed.wav,fjendtlig_reversed.wav,,,,,0,69,69,69,m,0.4909822940826416,False Alarm,absent,0.4,NA,SILENCE,1.4231468840187818,0810,001,2025-11-26_20-29-23,
present,0.6,minder_compressed.wav,minder,babble_71.wav,gidsel_reversed.wav,rigdom_reversed.wav,,,,,0,70,70,70,z,0.5488681793212891,Miss,present,0.6,minder,minder_compressed.wav,0.5508267886416606,0810,001,2025-11-26_20-29-23,
present,0.4,kugle_compressed.wav,kugle,babble_90.wav,redning_reversed.wav,diamant_reversed.wav,,,,,0,71,71,71,z,0.5263736248016357,Miss,present,0.4,kugle,kugle_compressed.wav,0.5271177212830409,0810,001,2025-11-26_20-29-23,
present,0.7,bombe_compressed.wav,bombe,babble_4.wav,sygdom_reversed.wav,accept_reversed.wav,,,,,0,72,72,72,z,0.43529391288757324,Miss,present,0.7,bombe,bombe_compressed.wav,0.6050188082388647,0810,001,2025-11-26_20-29-23,
present,0.7,afvist_compressed.wav,afvist,babble_6.wav,enhed_reversed.wav,røver_reversed.wav,,,,,0,73,73,73,m,0.41152286529541016,Hit,present,0.7,afvist,afvist_compressed.wav,0.9998823513128942,0810,001,2025-11-26_20-29-23,
absent,0.6,SILENCE,NA,babble_27.wav,kæle_reversed.wav,banner_reversed.wav,,,,,0,74,74,74,z,0.8711106777191162,Correct Rejection,absent,0.6,NA,SILENCE,0.6545515483576412,0810,001,2025-11-26_20-29-23,
absent,0.3,SILENCE,NA,babble_73.wav,opstemt_reversed.wav,lampe_reversed.wav,,,,,0,75,75,75,z,1.1126816272735596,Correct Rejection,absent,0.3,NA,SILENCE,1.427984070061441,0810,001,2025-11-26_20-29-23,
present,0.6,viden_compressed.wav,viden,babble_65.wav,rådden_reversed.wav,engel_reversed.wav,,,,,0,76,76,76,z,0.8535540103912354,Miss,present,0.6,viden,viden_compressed.wav,1.320582759164537,0810,001,2025-11-26_20-29-23,
absent,0.5,SILENCE,NA,babble_74.wav,trussel_reversed.wav,albue_reversed.wav,,,,,0,77,77,77,z,1.0447711944580078,Correct Rejection,absent,0.5,NA,SILENCE,0.6601583070114756,0810,001,2025-11-26_20-29-23,
absent,0.6,SILENCE,NA,babble_91.wav,pervers_reversed.wav,dæmon_reversed.wav,,,,,0,78,78,78,z,0.73537278175354,Correct Rejection,absent,0.6,NA,SILENCE,0.6688626084871915,0810,001,2025-11-26_20-29-23,
absent,0.7,SILENCE,NA,babble_38.wav,gidsel_reversed.wav,pude_reversed.wav,,,,,0,79,79,79,z,0.7433450222015381,Correct Rejection,absent,0.7,NA,SILENCE,1.071769883276252,0810,001,2025-11-26_20-29-23,
absent,0.1,SILENCE,NA,babble_67.wav,vinde_reversed.wav,gade_reversed.wav,,,,,0,80,80,80,z,0.5237081050872803,Correct Rejection,absent,0.1,NA,SILENCE,1.4921411879000681,0810,001,2025-11-26_20-29-23,
absent,0.1,SILENCE,NA,babble_64.wav,bifald_reversed.wav,fremskridt_reversed.wav,,,,,0,81,81,81,z,1.4420890808105469,Correct Rejection,absent,0.1,NA,SILENCE,0.9624661069125124,0810,001,2025-11-26_20-29-23,
absent,0.3,SILENCE,NA,babble_43.wav,magisk_reversed.wav,talent_reversed.wav,,,,,0,82,82,82,z,0.9701926708221436,Correct Rejection,absent,0.3,NA,SILENCE,0.9932595222280053,0810,001,2025-11-26_20-29-23,
present,0.5,bombe_compressed.wav,bombe,babble_60.wav,morder_reversed.wav,passion_reversed.wav,,,,,0,83,83,83,m,0.6493279933929443,Hit,present,0.5,bombe,bombe_compressed.wav,1.1539703904959424,0810,001,2025-11-26_20-29-23,
present,0.2,plakat_compressed.wav,plakat,babble_55.wav,rotte_reversed.wav,sindssyg_reversed.wav,,,,,0,84,84,84,m,0.45446348190307617,Hit,present,0.2,plakat,plakat_compressed.wav,1.4821294273189056,0810,001,2025-11-26_20-29-23,
absent,0.6,SILENCE,NA,babble_1.wav,albue_reversed.wav,natur_reversed.wav,,,,,0,85,85,85,z,0.6315915584564209,Correct Rejection,absent,0.6,NA,SILENCE,1.0601822514159163,0810,001,2025-11-26_20-29-23,
present,0.3,baby_compressed.wav,baby,babble_93.wav,tumor_reversed.wav,bygning_reversed.wav,,,,,0,86,86,86,z,0.4867234230041504,Miss,present,0.3,baby,baby_compressed.wav,1.0342649463175297,0810,001,2025-11-26_20-29-23,
present,0.6,kande_compressed.wav,kande,babble_64.wav,vindue_reversed.wav,djævel_reversed.wav,,,,,0,87,87,87,m,0.327573299407959,Hit,present,0.6,kande,kande_compressed.wav,0.5681822025388675,0810,001,2025-11-26_20-29-23,
absent,0.3,SILENCE,NA,babble_5.wav,poesi_reversed.wav,violin_reversed.wav,,,,,0,88,88,88,z,0.8272073268890381,Correct Rejection,absent,0.3,NA,SILENCE,0.5718582824771645,0810,001,2025-11-26_20-29-23,
absent,0.5,SILENCE,NA,babble_69.wav,voldtægt_reversed.wav,genstand_reversed.wav,,,,,0,89,89,89,z,0.46195387840270996,Correct Rejection,absent,0.5,NA,SILENCE,0.5958189745832686,0810,001,2025-11-26_20-29-23,
present,0.4,ferie_compressed.wav,ferie,babble_40.wav,sejre_reversed.wav,dæmon_reversed.wav,,,,,0,90,90,90,z,0.5026209354400635,Miss,present,0.4,ferie,ferie_compressed.wav,0.5946187739515142,0810,001,2025-11-26_20-29-23,
present,0.3,sindssyg_compressed.wav,sindssyg,babble_35.wav,kedel_reversed.wav,nonne_reversed.wav,,,,,0,91,91,91,m,0.2925891876220703,Hit,present,0.3,sindssyg,sindssyg_compressed.wav,1.1562112495111214,0810,001,2025-11-26_20-29-23,
present,0.4,leder_compressed.wav,leder,babble_0.wav,forfald_reversed.wav,magisk_reversed.wav,,,,,0,92,92,92,z,0.49259185791015625,Miss,present,0.4,leder,leder_compressed.wav,1.137637413257691,0810,001,2025-11-26_20-29-23,
present,0.6,utro_compressed.wav,utro,babble_16.wav,sikker_reversed.wav,ketchup_reversed.wav,,,,,0,93,93,93,m,2.2730391025543213,Hit,present,0.6,utro,utro_compressed.wav,1.1013708068601904,0810,001,2025-11-26_20-29-23,
absent,0.4,SILENCE,NA,babble_73.wav,hader_reversed.wav,forpint_reversed.wav,,,,,0,94,94,94,z,0.4784238338470459,Correct Rejection,absent,0.4,NA,SILENCE,1.1562903401725086,0810,001,2025-11-26_20-29-23,
present,0.2,kande_compressed.wav,kande,babble_83.wav,heldig_reversed.wav,brutal_reversed.wav,,,,,0,95,95,95,m,0.5611720085144043,Hit,present,0.2,kande,kande_compressed.wav,0.5440978936925619,0810,001,2025-11-26_20-29-23,
absent,0.2,SILENCE,NA,babble_17.wav,flirte_reversed.wav,kærtegn_reversed.wav,,,,,0,96,96,96,z,2.1759066581726074,Correct Rejection,absent,0.2,NA,SILENCE,1.0007232556316072,0810,001,2025-11-26_20-29-23,
absent,0.3,SILENCE,NA,babble_26.wav,mester_reversed.wav,voldtægt_reversed.wav,,,,,0,97,97,97,z,0.6890573501586914,Correct Rejection,absent,0.3,NA,SILENCE,0.9440964239621198,0810,001,2025-11-26_20-29-23,
