signal_type,compression_level,prime_file,correct_word,babbling_file,mask1_file,mask2_file,practice.thisRepN,practice.thisTrialN,practice.thisN,practice.thisIndex,main.thisRepN,main.thisTrialN,main.thisN,main.thisIndex,thisRow.t,notes,response_key,rt,trial_outcome,babble_duration,Participant ID,Session,date,
present,0.2,knude_compressed.wav,knude,babble_82.wav,fængsel_reversed.wav,knude_reversed.wav,0,0,0,0,0,-1,-1,0,,,z,18.793415833992185,Miss,1.4320992993194568,99999,001,2025-11-20_13-11-42,
present,0.3,bange_compressed.wav,bange,babble_11.wav,stjerne_reversed.wav,dollar_reversed.wav,0,1,1,1,0,-1,-1,0,,,m,2.483447292004712,Hit,1.4960349120675986,99999,001,2025-11-20_13-11-42,
absent,0.3,SILENCE,NA,babble_92.wav,hjerte_reversed.wav,sandhed_reversed.wav,0,2,2,2,0,-1,-1,0,,,z,1.5020054579945281,Correct Rejection,0.5167191644526161,99999,001,2025-11-20_13-11-42,
present,0.6,jubel_compressed.wav,jubel,babble_38.wav,brutal_reversed.wav,misbrug_reversed.wav,0,3,3,3,0,-1,-1,0,,,z,1.8229812080098782,Miss,1.0681264276652018,99999,001,2025-11-20_13-11-42,
absent,0.7,SILENCE,NA,babble_90.wav,banner_reversed.wav,luksus_reversed.wav,0,4,4,4,0,-1,-1,0,,,z,0.8881194579880685,Correct Rejection,0.527040881262774,99999,001,2025-11-20_13-11-42,
present,0.7,bygning_compressed.wav,bygning,babble_62.wav,ledning_reversed.wav,hage_reversed.wav,0,5,5,5,0,-1,-1,0,,,z,2.078381416009506,Miss,1.2076854469056033,99999,001,2025-11-20_13-11-42,
absent,0.4,SILENCE,NA,babble_68.wav,rædsel_reversed.wav,forkert_reversed.wav,0,6,6,6,0,-1,-1,0,,,z,2.8589832500147168,Correct Rejection,1.261967099305581,99999,001,2025-11-20_13-11-42,
present,0.1,ketchup_compressed.wav,ketchup,babble_40.wav,redskab_reversed.wav,ketchup_reversed.wav,0,7,7,7,0,-1,-1,0,,,m,1.2612019999942277,Hit,0.8901309039060463,99999,001,2025-11-20_13-11-42,
absent,0.1,SILENCE,NA,babble_17.wav,bombe_reversed.wav,fase_reversed.wav,0,8,8,8,0,-1,-1,0,,,z,1.314024374994915,Correct Rejection,1.1460469581077644,99999,001,2025-11-20_13-11-42,
present,0.5,intim_compressed.wav,intim,babble_28.wav,djævel_reversed.wav,vandal_reversed.wav,0,9,9,9,0,-1,-1,0,,,m,1.6472237500129268,Hit,1.158338370140134,99999,001,2025-11-20_13-11-42,
absent,0.5,SILENCE,NA,babble_96.wav,oprørt_reversed.wav,marked_reversed.wav,0,10,10,10,0,-1,-1,0,,,m,2.463524375023553,False Alarm,1.382971204034873,99999,001,2025-11-20_13-11-42,
absent,0.6,SILENCE,NA,babble_20.wav,tilfreds_reversed.wav,måned_reversed.wav,0,11,11,11,0,-1,-1,0,,,z,1.3198051250074059,Correct Rejection,0.9421163722176944,99999,001,2025-11-20_13-11-42,
absent,0.2,SILENCE,NA,babble_92.wav,sindssyg_reversed.wav,rådden_reversed.wav,0,12,12,12,0,-1,-1,0,,,z,1.5853736249846406,Correct Rejection,0.6609060557706914,99999,001,2025-11-20_13-11-42,
present,0.4,forfald_compressed.wav,forfald,babble_30.wav,smerte_reversed.wav,accept_reversed.wav,0,13,13,13,0,-1,-1,0,,,z,31.98736516601639,Miss,1.0831393813063483,99999,001,2025-11-20_13-11-42,
absent,0.2,SILENCE,NA,babble_30.wav,engel_reversed.wav,putte_reversed.wav,,,,,0,0,0,0,,,z,0.7899417919979896,Correct Rejection,1.2723870323869066,99999,001,2025-11-20_13-11-42,
present,0.3,fiasko_compressed.wav,fiasko,babble_83.wav,misbrug_reversed.wav,smerte_reversed.wav,,,,,0,1,1,1,,,m,0.7287945839925669,Hit,1.2505237492679417,99999,001,2025-11-20_13-11-42,
present,0.7,sejre_compressed.wav,sejre,babble_22.wav,selvmord_reversed.wav,vandfald_reversed.wav,,,,,0,2,2,2,,,m,1.218853250000393,Hit,1.003367662963202,99999,001,2025-11-20_13-11-42,
absent,0.1,SILENCE,NA,babble_77.wav,vandal_reversed.wav,cirkel_reversed.wav,,,,,0,3,3,3,,,z,1.7632342079887167,Correct Rejection,0.7359975927088442,99999,001,2025-11-20_13-11-42,
absent,0.5,SILENCE,NA,babble_94.wav,heldig_reversed.wav,oprørt_reversed.wav,,,,,0,4,4,4,,,z,1.1693119579867925,Correct Rejection,1.1406531089700196,99999,001,2025-11-20_13-11-42,
absent,0.7,SILENCE,NA,babble_77.wav,rabies_reversed.wav,forpint_reversed.wav,,,,,0,5,5,5,,,m,0.8491605829913169,False Alarm,0.9405966292889603,99999,001,2025-11-20_13-11-42,
present,0.3,regnbue_compressed.wav,regnbue,babble_26.wav,rædsel_reversed.wav,fase_reversed.wav,,,,,0,6,6,6,,,z,1.3456904159975238,Miss,0.5453094222297739,99999,001,2025-11-20_13-11-42,
present,0.1,maling_compressed.wav,maling,babble_58.wav,pjece_reversed.wav,væmmes_reversed.wav,,,,,0,7,7,7,,,m,0.5629508330021054,Hit,0.8328441785913048,99999,001,2025-11-20_13-11-42,
present,0.7,nonsens_compressed.wav,nonsens,babble_13.wav,ensom_reversed.wav,kujon_reversed.wav,,,,,0,8,8,8,,,z,1.73507399999653,Miss,1.4521462058061092,99999,001,2025-11-20_13-11-42,
present,0.6,putte_compressed.wav,putte,babble_72.wav,trussel_reversed.wav,røver_reversed.wav,,,,,0,9,9,9,,,m,2.809103709005285,Hit,0.5270660655947808,99999,001,2025-11-20_13-11-42,
present,0.1,sikker_compressed.wav,sikker,babble_0.wav,voldtægt_reversed.wav,luksus_reversed.wav,,,,,0,10,10,10,,,m,1.7577787920017727,Hit,1.1810848972540504,99999,001,2025-11-20_13-11-42,
present,0.7,enhed_compressed.wav,enhed,babble_97.wav,varme_reversed.wav,konkurs_reversed.wav,,,,,0,11,11,11,,,m,1.495330790989101,Hit,0.543823698646099,99999,001,2025-11-20_13-11-42,
present,0.3,skammel_compressed.wav,skammel,babble_68.wav,søsyg_reversed.wav,giftig_reversed.wav,,,,,0,12,12,12,,,m,0.7712769169884268,Hit,1.0801849190423176,99999,001,2025-11-20_13-11-42,
present,0.6,violin_compressed.wav,violin,babble_72.wav,cirkel_reversed.wav,tilfreds_reversed.wav,,,,,0,13,13,13,,,z,0.8027325409930199,Miss,0.793887155040063,99999,001,2025-11-20_13-11-42,
present,0.2,latter_compressed.wav,latter,babble_64.wav,gave_reversed.wav,kontor_reversed.wav,,,,,0,14,14,14,,,m,0.5061796660011169,Hit,0.9592830936739926,99999,001,2025-11-20_13-11-42,
absent,0.5,SILENCE,NA,babble_33.wav,tortur_reversed.wav,natur_reversed.wav,,,,,0,15,15,15,,,m,0.937884666986065,False Alarm,0.7967101268859282,99999,001,2025-11-20_13-11-42,
absent,0.2,SILENCE,NA,babble_39.wav,banner_reversed.wav,putte_reversed.wav,,,,,0,16,16,16,,,z,0.9457407919981051,Correct Rejection,1.3867586638870362,99999,001,2025-11-20_13-11-42,
present,0.1,oprør_compressed.wav,oprør,babble_52.wav,grimme_reversed.wav,maling_reversed.wav,,,,,0,17,17,17,,,z,0.7694707920018118,Miss,1.3364004156934968,99999,001,2025-11-20_13-11-42,
present,0.2,enhed_compressed.wav,enhed,babble_68.wav,rotte_reversed.wav,ketchup_reversed.wav,,,,,0,18,18,18,,,z,1.5861504589847755,Miss,0.5949171399670768,99999,001,2025-11-20_13-11-42,
present,0.5,feber_compressed.wav,feber,babble_78.wav,redning_reversed.wav,affald_reversed.wav,,,,,0,19,19,19,,,z,0.6340438750048634,Miss,0.870762611112667,99999,001,2025-11-20_13-11-42,
present,0.6,himlen_compressed.wav,himlen,babble_95.wav,trofæ_reversed.wav,rædsel_reversed.wav,,,,,0,20,20,20,,,z,0.7468305829970632,Miss,1.1819946566865074,99999,001,2025-11-20_13-11-42,
absent,0.4,SILENCE,NA,babble_31.wav,rabies_reversed.wav,pervers_reversed.wav,,,,,0,21,21,21,,,z,0.6678579170256853,Correct Rejection,1.1772974156500455,99999,001,2025-11-20_13-11-42,
absent,0.3,SILENCE,NA,babble_14.wav,dollar_reversed.wav,albue_reversed.wav,,,,,0,22,22,22,,,z,0.9206144999770913,Correct Rejection,0.9378485704327019,99999,001,2025-11-20_13-11-42,
absent,0.4,SILENCE,NA,babble_39.wav,ugle_reversed.wav,albue_reversed.wav,,,,,0,23,23,23,,,z,0.9269824160146527,Correct Rejection,0.5615412868474897,99999,001,2025-11-20_13-11-42,
absent,0.5,SILENCE,NA,babble_36.wav,boble_reversed.wav,skønhed_reversed.wav,,,,,0,24,24,24,,,z,1.2499266660015564,Correct Rejection,0.9663427807685361,99999,001,2025-11-20_13-11-42,
present,0.1,vandal_compressed.wav,vandal,babble_30.wav,tortur_reversed.wav,regnbue_reversed.wav,,,,,0,25,25,25,,,m,0.544756540999515,Hit,0.6829133818341574,99999,001,2025-11-20_13-11-42,
present,0.7,lyse_compressed.wav,lyse,babble_71.wav,fængsel_reversed.wav,lærer_reversed.wav,,,,,0,26,26,26,,,z,1.4591158330149483,Miss,1.3601295133912146,99999,001,2025-11-20_13-11-42,
present,0.5,blomstre_compressed.wav,blomstre,babble_57.wav,selvmord_reversed.wav,skammel_reversed.wav,,,,,0,27,27,27,,,m,1.6751051250030287,Hit,1.1563084611849916,99999,001,2025-11-20_13-11-42,
absent,0.3,SILENCE,NA,babble_95.wav,metal_reversed.wav,gave_reversed.wav,,,,,0,28,28,28,,,z,1.0059717500116676,Correct Rejection,0.5397221859303204,99999,001,2025-11-20_13-11-42,
present,0.2,gade_compressed.wav,gade,babble_68.wav,opstemt_reversed.wav,skønhed_reversed.wav,,,,,0,29,29,29,,,m,0.5730814999842551,Hit,0.7223726360611782,99999,001,2025-11-20_13-11-42,
absent,0.5,SILENCE,NA,babble_60.wav,smerte_reversed.wav,nonsens_reversed.wav,,,,,0,30,30,30,,,z,2.438185709004756,Correct Rejection,1.2772862070751194,99999,001,2025-11-20_13-11-42,
absent,0.1,SILENCE,NA,babble_95.wav,natur_reversed.wav,ledning_reversed.wav,,,,,0,31,31,31,,,m,0.2787052910134662,False Alarm,0.8890513860063062,99999,001,2025-11-20_13-11-42,
absent,0.3,SILENCE,NA,babble_90.wav,nøgle_reversed.wav,tortur_reversed.wav,,,,,0,32,32,32,,,m,0.38267624998115934,False Alarm,1.4432645373923063,99999,001,2025-11-20_13-11-42,
present,0.7,offer_compressed.wav,offer,babble_56.wav,ensom_reversed.wav,hader_reversed.wav,,,,,0,33,33,33,,,m,1.0069497500080615,Hit,0.8264790833125162,99999,001,2025-11-20_13-11-42,
absent,0.7,SILENCE,NA,babble_18.wav,feber_reversed.wav,albue_reversed.wav,,,,,0,34,34,34,,,z,0.45312437499524094,Correct Rejection,0.7245653380830214,99999,001,2025-11-20_13-11-42,
absent,0.2,SILENCE,NA,babble_80.wav,banner_reversed.wav,koldbrand_reversed.wav,,,,,0,35,35,35,,,z,0.5342675829888321,Correct Rejection,1.0592660465041241,99999,001,2025-11-20_13-11-42,
present,0.4,feber_compressed.wav,feber,babble_34.wav,rigdom_reversed.wav,spænding_reversed.wav,,,,,0,36,36,36,,,z,0.29362095799297094,Miss,1.2285063897991675,99999,001,2025-11-20_13-11-42,
present,0.6,hage_compressed.wav,hage,babble_61.wav,museum_reversed.wav,kedel_reversed.wav,,,,,0,37,37,37,,,z,0.8148328750103246,Miss,0.8336344695894868,99999,001,2025-11-20_13-11-42,
present,0.5,bifald_compressed.wav,bifald,babble_62.wav,respekt_reversed.wav,poesi_reversed.wav,,,,,0,38,38,38,,,z,0.8670820419793017,Miss,1.320798969684143,99999,001,2025-11-20_13-11-42,
absent,0.7,SILENCE,NA,babble_23.wav,blodig_reversed.wav,giftig_reversed.wav,,,,,0,39,39,39,,,z,0.583873041003244,Correct Rejection,1.0079536212997584,99999,001,2025-11-20_13-11-42,
present,0.2,hader_compressed.wav,hader,babble_57.wav,fase_reversed.wav,skammel_reversed.wav,,,,,0,40,40,40,,,m,0.3613797500147484,Hit,0.5046799497813519,99999,001,2025-11-20_13-11-42,
absent,0.6,SILENCE,NA,babble_46.wav,sikker_reversed.wav,leder_reversed.wav,,,,,0,41,41,41,,,m,1.6696524590079207,False Alarm,1.3578714356129942,99999,001,2025-11-20_13-11-42,
present,0.1,jubel_compressed.wav,jubel,babble_70.wav,bifald_reversed.wav,gidsel_reversed.wav,,,,,0,42,42,42,,,z,0.3647165419824887,Miss,0.599098789665229,99999,001,2025-11-20_13-11-42,
present,0.3,sygdom_compressed.wav,sygdom,babble_97.wav,brænde_reversed.wav,hjerte_reversed.wav,,,,,0,43,43,43,,,m,0.6167590839904733,Hit,0.6588504646847044,99999,001,2025-11-20_13-11-42,
present,0.5,cirkel_compressed.wav,cirkel,babble_17.wav,fedme_reversed.wav,jubel_reversed.wav,,,,,0,44,44,44,,,z,0.562062666984275,Miss,0.7477584107413946,99999,001,2025-11-20_13-11-42,
absent,0.1,SILENCE,NA,babble_88.wav,kontor_reversed.wav,kujon_reversed.wav,,,,,0,45,45,45,,,z,0.38021699999808334,Correct Rejection,1.231351286333173,99999,001,2025-11-20_13-11-42,
absent,0.6,SILENCE,NA,babble_62.wav,koldbrand_reversed.wav,trofæ_reversed.wav,,,,,0,46,46,46,,,z,0.8340624580159783,Correct Rejection,0.7147824229936054,99999,001,2025-11-20_13-11-42,
present,0.2,vandfald_compressed.wav,vandfald,babble_9.wav,ketchup_reversed.wav,humor_reversed.wav,,,,,0,47,47,47,,,m,1.4736460410058498,Hit,1.0644637323508945,99999,001,2025-11-20_13-11-42,
present,0.2,kærtegn_compressed.wav,kærtegn,babble_19.wav,sæde_reversed.wav,taxa_reversed.wav,,,,,0,48,48,48,,,m,0.39267404199927114,Hit,1.2653741026376801,99999,001,2025-11-20_13-11-42,
absent,0.6,SILENCE,NA,babble_99.wav,pude_reversed.wav,salat_reversed.wav,,,,,0,49,49,49,,,z,1.0916795000084676,Correct Rejection,1.1754210988782594,99999,001,2025-11-20_13-11-42,
absent,0.1,SILENCE,NA,babble_99.wav,grusom_reversed.wav,måned_reversed.wav,,,,,0,50,50,50,,,z,0.4889282920048572,Correct Rejection,1.2293062081717991,99999,001,2025-11-20_13-11-42,
absent,0.6,SILENCE,NA,babble_72.wav,utro_reversed.wav,kujon_reversed.wav,,,,,0,51,51,51,,,z,0.6913531249738298,Correct Rejection,0.8355962793479081,99999,001,2025-11-20_13-11-42,
present,0.1,mester_compressed.wav,mester,babble_14.wav,himmel_reversed.wav,genstand_reversed.wav,,,,,0,52,52,52,,,m,0.2923069169919472,Hit,0.9769930190083617,99999,001,2025-11-20_13-11-42,
present,0.1,borddug_compressed.wav,borddug,babble_90.wav,dæmpet_reversed.wav,giftig_reversed.wav,,,,,0,53,53,53,,,m,0.3813795000023674,Hit,0.7719829800506606,99999,001,2025-11-20_13-11-42,
absent,0.3,SILENCE,NA,babble_81.wav,fedme_reversed.wav,krise_reversed.wav,,,,,0,54,54,54,,,z,0.4635311250167433,Correct Rejection,1.022530437769845,99999,001,2025-11-20_13-11-42,
absent,0.3,SILENCE,NA,babble_70.wav,violin_reversed.wav,violin_reversed.wav,,,,,0,55,55,55,,,z,0.36080620900611393,Correct Rejection,1.1254588954621263,99999,001,2025-11-20_13-11-42,
absent,0.7,SILENCE,NA,babble_7.wav,spise_reversed.wav,nonne_reversed.wav,,,,,0,56,56,56,,,z,0.8046863749914337,Correct Rejection,0.59417034680103,99999,001,2025-11-20_13-11-42,
present,0.3,genert_compressed.wav,genert,babble_36.wav,ugle_reversed.wav,pervers_reversed.wav,,,,,0,57,57,57,,,m,0.29022704099770635,Hit,1.041302362555521,99999,001,2025-11-20_13-11-42,
absent,0.7,SILENCE,NA,babble_33.wav,museum_reversed.wav,ønske_reversed.wav,,,,,0,58,58,58,,,z,0.8309164159873035,Correct Rejection,0.9236199921115008,99999,001,2025-11-20_13-11-42,
present,0.7,gade_compressed.wav,gade,babble_24.wav,fjendtlig_reversed.wav,ørken_reversed.wav,,,,,0,59,59,59,,,m,0.35913433402311057,Hit,0.9675074928309171,99999,001,2025-11-20_13-11-42,
present,0.2,sexet_compressed.wav,sexet,babble_30.wav,flirte_reversed.wav,søsyg_reversed.wav,,,,,0,60,60,60,,,m,1.3032974999805447,Hit,0.9016297963111346,99999,001,2025-11-20_13-11-42,
present,0.2,hånlig_compressed.wav,hånlig,babble_43.wav,hjerte_reversed.wav,viden_reversed.wav,,,,,0,61,61,61,,,m,0.3438017090084031,Hit,1.4133778338652658,99999,001,2025-11-20_13-11-42,
present,0.4,viden_compressed.wav,viden,babble_19.wav,rotte_reversed.wav,tumor_reversed.wav,,,,,0,62,62,62,,,z,0.4737405000196304,Miss,0.9122204057655047,99999,001,2025-11-20_13-11-42,
absent,0.5,SILENCE,NA,babble_89.wav,røver_reversed.wav,kage_reversed.wav,,,,,0,63,63,63,,,z,0.9376339169975836,Correct Rejection,1.4245540073742164,99999,001,2025-11-20_13-11-42,
present,0.3,viden_compressed.wav,viden,babble_28.wav,ketchup_reversed.wav,kæle_reversed.wav,,,,,0,64,64,64,,,z,1.1709559579903726,Miss,1.414818748614763,99999,001,2025-11-20_13-11-42,
present,0.6,forfald_compressed.wav,forfald,babble_25.wav,rædsel_reversed.wav,succes_reversed.wav,,,,,0,65,65,65,,,z,0.8849501250078902,Miss,0.5674531867834762,99999,001,2025-11-20_13-11-42,
present,0.4,genstand_compressed.wav,genstand,babble_35.wav,himmel_reversed.wav,bifald_reversed.wav,,,,,0,66,66,66,,,m,0.9726820420182776,Hit,1.489270326541933,99999,001,2025-11-20_13-11-42,
present,0.3,nedbrud_compressed.wav,nedbrud,babble_28.wav,skammel_reversed.wav,gidsel_reversed.wav,,,,,0,67,67,67,,,z,0.3867605419945903,Miss,1.0840107433644266,99999,001,2025-11-20_13-11-42,
present,0.7,violin_compressed.wav,violin,babble_7.wav,leder_reversed.wav,fedme_reversed.wav,,,,,0,68,68,68,,,z,0.7812268339912407,Miss,1.1188324999798165,99999,001,2025-11-20_13-11-42,
present,0.5,sandhed_compressed.wav,sandhed,babble_63.wav,nedbrud_reversed.wav,forpint_reversed.wav,,,,,0,69,69,69,,,z,0.3192563749908004,Miss,1.162154692108057,99999,001,2025-11-20_13-11-42,
absent,0.3,SILENCE,NA,babble_41.wav,sandhed_reversed.wav,drukne_reversed.wav,,,,,0,70,70,70,,,z,0.48048429100890644,Correct Rejection,0.861147107962076,99999,001,2025-11-20_13-11-42,
absent,0.6,SILENCE,NA,babble_84.wav,modgang_reversed.wav,sollys_reversed.wav,,,,,0,71,71,71,,,z,0.3683372910018079,Correct Rejection,1.4442508556448992,99999,001,2025-11-20_13-11-42,
absent,0.7,SILENCE,NA,babble_1.wav,nøgle_reversed.wav,accept_reversed.wav,,,,,0,72,72,72,,,z,0.3955531250103377,Correct Rejection,0.9634607174909932,99999,001,2025-11-20_13-11-42,
present,0.3,oprør_compressed.wav,oprør,babble_7.wav,leder_reversed.wav,giftig_reversed.wav,,,,,0,73,73,73,,,m,0.6767624999920372,Hit,0.9765497025463218,99999,001,2025-11-20_13-11-42,
absent,0.3,SILENCE,NA,babble_24.wav,lærer_reversed.wav,hjerte_reversed.wav,,,,,0,74,74,74,,,m,0.4462808750104159,False Alarm,1.1434446729434955,99999,001,2025-11-20_13-11-42,
present,0.1,sejre_compressed.wav,sejre,babble_35.wav,metal_reversed.wav,nedbrud_reversed.wav,,,,,0,75,75,75,,,z,0.4829737080144696,Miss,0.6341548806322528,99999,001,2025-11-20_13-11-42,
absent,0.1,SILENCE,NA,babble_91.wav,rabies_reversed.wav,hjerte_reversed.wav,,,,,0,76,76,76,,,z,0.9673209580068942,Correct Rejection,0.9993291242874424,99999,001,2025-11-20_13-11-42,
absent,0.1,SILENCE,NA,babble_50.wav,røver_reversed.wav,borddug_reversed.wav,,,,,0,77,77,77,,,m,1.136927082989132,False Alarm,0.765413513844781,99999,001,2025-11-20_13-11-42,
absent,0.2,SILENCE,NA,babble_89.wav,selvmord_reversed.wav,accept_reversed.wav,,,,,0,78,78,78,,,z,0.3823792500188574,Correct Rejection,1.02385157179523,99999,001,2025-11-20_13-11-42,
present,0.6,blomstre_compressed.wav,blomstre,babble_16.wav,drukne_reversed.wav,enhed_reversed.wav,,,,,0,79,79,79,,,z,0.5146346669935156,Miss,1.403311253962225,99999,001,2025-11-20_13-11-42,
present,0.6,kage_compressed.wav,kage,babble_85.wav,mave_reversed.wav,kande_reversed.wav,,,,,0,80,80,80,,,z,0.5281221249897499,Miss,0.8430123015515059,99999,001,2025-11-20_13-11-42,
present,0.1,genstand_compressed.wav,genstand,babble_20.wav,søsyg_reversed.wav,fiasko_reversed.wav,,,,,0,81,81,81,,,m,0.3045919580035843,Hit,0.5971096327866763,99999,001,2025-11-20_13-11-42,
absent,0.6,SILENCE,NA,babble_4.wav,fjendtlig_reversed.wav,nedbrud_reversed.wav,,,,,0,82,82,82,,,z,0.5447611249983311,Correct Rejection,1.1790574220353187,99999,001,2025-11-20_13-11-42,
absent,0.7,SILENCE,NA,babble_46.wav,hånlig_reversed.wav,knude_reversed.wav,,,,,0,83,83,83,,,z,0.3510189999942668,Correct Rejection,1.3159489340374428,99999,001,2025-11-20_13-11-42,
absent,0.7,SILENCE,NA,babble_91.wav,grusom_reversed.wav,redning_reversed.wav,,,,,0,84,84,84,,,z,0.3679759159858804,Correct Rejection,1.2402138076828613,99999,001,2025-11-20_13-11-42,
present,0.7,venlig_compressed.wav,venlig,babble_93.wav,finger_reversed.wav,lærer_reversed.wav,,,,,0,85,85,85,,,m,0.3420125000120606,Hit,1.3688327060665642,99999,001,2025-11-20_13-11-42,
present,0.1,nonsens_compressed.wav,nonsens,babble_60.wav,ketchup_reversed.wav,frihed_reversed.wav,,,,,0,86,86,86,,,z,0.30819404099020176,Miss,1.1223564425820103,99999,001,2025-11-20_13-11-42,
absent,0.2,SILENCE,NA,babble_86.wav,drukne_reversed.wav,forkert_reversed.wav,,,,,0,87,87,87,,,z,0.5181504170177504,Correct Rejection,0.990463724212744,99999,001,2025-11-20_13-11-42,
present,0.7,feber_compressed.wav,feber,babble_25.wav,fiasko_reversed.wav,humor_reversed.wav,,,,,0,88,88,88,,,z,0.4353938339918386,Miss,1.3306074067714113,99999,001,2025-11-20_13-11-42,
absent,0.4,SILENCE,NA,babble_42.wav,traume_reversed.wav,kedel_reversed.wav,,,,,0,89,89,89,,,z,0.35798266701749526,Correct Rejection,0.6094099096629851,99999,001,2025-11-20_13-11-42,
absent,0.5,SILENCE,NA,babble_30.wav,konge_reversed.wav,natur_reversed.wav,,,,,0,90,90,90,,,z,0.87888975001988,Correct Rejection,0.7345041760068495,99999,001,2025-11-20_13-11-42,
present,0.1,boble_compressed.wav,boble,babble_57.wav,fiasko_reversed.wav,ørken_reversed.wav,,,,,0,91,91,91,,,z,0.5282959580072202,Miss,1.453640210381261,99999,001,2025-11-20_13-11-42,
absent,0.2,SILENCE,NA,babble_77.wav,bifald_reversed.wav,pervers_reversed.wav,,,,,0,92,92,92,,,z,0.6520659160159994,Correct Rejection,0.7921543910459637,99999,001,2025-11-20_13-11-42,
present,0.4,kujon_compressed.wav,kujon,babble_77.wav,pjece_reversed.wav,avis_reversed.wav,,,,,0,93,93,93,,,z,0.565803166013211,Miss,1.4108538746850514,99999,001,2025-11-20_13-11-42,
absent,0.6,SILENCE,NA,babble_43.wav,fængsel_reversed.wav,vandfald_reversed.wav,,,,,0,94,94,94,,,z,0.7003165000060108,Correct Rejection,0.9690076542935517,99999,001,2025-11-20_13-11-42,
absent,0.4,SILENCE,NA,babble_59.wav,nedbrud_reversed.wav,fængsel_reversed.wav,,,,,0,95,95,95,,,z,0.9553999170020688,Correct Rejection,0.5738082861339961,99999,001,2025-11-20_13-11-42,
absent,0.5,SILENCE,NA,babble_62.wav,magisk_reversed.wav,gidsel_reversed.wav,,,,,0,96,96,96,,,z,0.6697183749929536,Correct Rejection,1.4338162389719327,99999,001,2025-11-20_13-11-42,
absent,0.3,SILENCE,NA,babble_22.wav,kiste_reversed.wav,hånlig_reversed.wav,,,,,0,97,97,97,,,z,0.41506245799246244,Correct Rejection,1.3823811366276102,99999,001,2025-11-20_13-11-42,
present,0.4,ærlig_compressed.wav,ærlig,babble_51.wav,bombe_reversed.wav,feber_reversed.wav,,,,,0,98,98,98,,,z,0.6683183329878375,Miss,1.107670598854145,99999,001,2025-11-20_13-11-42,
present,0.5,illoyal_compressed.wav,illoyal,babble_34.wav,blomstre_reversed.wav,boble_reversed.wav,,,,,0,99,99,99,,,z,0.5950876670249272,Miss,0.6299951475060317,99999,001,2025-11-20_13-11-42,
present,0.5,kontor_compressed.wav,kontor,babble_80.wav,museum_reversed.wav,fase_reversed.wav,,,,,0,100,100,100,,,m,0.2391870419960469,Hit,1.1278154339418354,99999,001,2025-11-20_13-11-42,
present,0.3,nonsens_compressed.wav,nonsens,babble_43.wav,bombe_reversed.wav,rædsel_reversed.wav,,,,,0,101,101,101,,,z,1.3794815410219599,Miss,1.1326842222709836,99999,001,2025-11-20_13-11-42,
present,0.6,rådden_compressed.wav,rådden,babble_36.wav,skammel_reversed.wav,kontor_reversed.wav,,,,,0,102,102,102,,,z,0.4288134170055855,Miss,0.8863332423682269,99999,001,2025-11-20_13-11-42,
absent,0.4,SILENCE,NA,babble_19.wav,syndig_reversed.wav,gade_reversed.wav,,,,,0,103,103,103,,,m,0.501822042017011,False Alarm,1.0179243126834852,99999,001,2025-11-20_13-11-42,
absent,0.3,SILENCE,NA,babble_88.wav,hånlig_reversed.wav,skuffe_reversed.wav,,,,,0,104,104,104,,,z,0.5535175840195734,Correct Rejection,0.6015147332723145,99999,001,2025-11-20_13-11-42,
present,0.5,kage_compressed.wav,kage,babble_50.wav,traume_reversed.wav,nonne_reversed.wav,,,,,0,105,105,105,,,z,0.5634453749808017,Miss,1.1527939914551852,99999,001,2025-11-20_13-11-42,
present,0.3,violin_compressed.wav,violin,babble_53.wav,fængsel_reversed.wav,oprør_reversed.wav,,,,,0,106,106,106,,,m,0.25763429200742394,Hit,0.9378513515143592,99999,001,2025-11-20_13-11-42,
absent,0.3,SILENCE,NA,babble_41.wav,statue_reversed.wav,genert_reversed.wav,,,,,0,107,107,107,,,z,1.131940166989807,Correct Rejection,0.9773784337353087,99999,001,2025-11-20_13-11-42,
present,0.3,magisk_compressed.wav,magisk,babble_79.wav,ketchup_reversed.wav,pervers_reversed.wav,,,,,0,108,108,108,,,z,0.5678910840069875,Miss,0.6978900527826591,99999,001,2025-11-20_13-11-42,
absent,0.1,SILENCE,NA,babble_19.wav,oprørt_reversed.wav,avis_reversed.wav,,,,,0,109,109,109,,,z,0.4251456659985706,Correct Rejection,1.238475261211157,99999,001,2025-11-20_13-11-42,
absent,0.1,SILENCE,NA,babble_13.wav,trofæ_reversed.wav,dæmpet_reversed.wav,,,,,0,110,110,110,,,z,0.38913012499688193,Correct Rejection,0.571994268136844,99999,001,2025-11-20_13-11-42,
present,0.5,ugle_compressed.wav,ugle,babble_42.wav,kæle_reversed.wav,dæmpet_reversed.wav,,,,,0,111,111,111,,,m,0.6563090409908909,Hit,1.3173912793277187,99999,001,2025-11-20_13-11-42,
absent,0.2,SILENCE,NA,babble_69.wav,ensom_reversed.wav,sandhed_reversed.wav,,,,,0,112,112,112,,,m,0.8012560000061058,False Alarm,0.8791832596746189,99999,001,2025-11-20_13-11-42,
absent,0.1,SILENCE,NA,babble_97.wav,koldbrand_reversed.wav,fase_reversed.wav,,,,,0,113,113,113,,,z,0.3991639999730978,Correct Rejection,1.0835083046440643,99999,001,2025-11-20_13-11-42,
present,0.2,kage_compressed.wav,kage,babble_77.wav,redning_reversed.wav,forfald_reversed.wav,,,,,0,114,114,114,,,m,0.29823891702108085,Hit,0.9088036975161178,99999,001,2025-11-20_13-11-42,
absent,0.3,SILENCE,NA,babble_82.wav,blomstre_reversed.wav,sandhed_reversed.wav,,,,,0,115,115,115,,,z,0.7552308340091258,Correct Rejection,0.624407290494181,99999,001,2025-11-20_13-11-42,
absent,0.1,SILENCE,NA,babble_27.wav,varme_reversed.wav,affald_reversed.wav,,,,,0,116,116,116,,,z,0.6598382500233129,Correct Rejection,1.3989421231295003,99999,001,2025-11-20_13-11-42,
present,0.5,varme_compressed.wav,varme,babble_83.wav,offer_reversed.wav,varme_reversed.wav,,,,,0,117,117,117,,,m,0.33604170801118016,Hit,1.459477126733307,99999,001,2025-11-20_13-11-42,
absent,0.3,SILENCE,NA,babble_45.wav,ledning_reversed.wav,sæde_reversed.wav,,,,,0,118,118,118,,,z,0.4152442920021713,Correct Rejection,1.1243251052537984,99999,001,2025-11-20_13-11-42,
absent,0.4,SILENCE,NA,babble_36.wav,humor_reversed.wav,passion_reversed.wav,,,,,0,119,119,119,,,z,0.494533874996705,Correct Rejection,1.1292851837339617,99999,001,2025-11-20_13-11-42,
present,0.6,luksus_compressed.wav,luksus,babble_5.wav,violin_reversed.wav,voldtægt_reversed.wav,,,,,0,120,120,120,,,z,1.0917284589959309,Miss,1.3870622916427178,99999,001,2025-11-20_13-11-42,
absent,0.6,SILENCE,NA,babble_30.wav,nøgle_reversed.wav,gidsel_reversed.wav,,,,,0,121,121,121,,,z,1.2145333749940619,Correct Rejection,1.1231804374474714,99999,001,2025-11-20_13-11-42,
absent,0.5,SILENCE,NA,babble_74.wav,viden_reversed.wav,fængsel_reversed.wav,,,,,0,122,122,122,,,z,0.6103227499988861,Correct Rejection,0.980730926040878,99999,001,2025-11-20_13-11-42,
present,0.4,genert_compressed.wav,genert,babble_74.wav,ankel_reversed.wav,bygning_reversed.wav,,,,,0,123,123,123,,,m,0.2210735830012709,Hit,1.4558024675231964,99999,001,2025-11-20_13-11-42,
absent,0.7,SILENCE,NA,babble_29.wav,kærtegn_reversed.wav,glæde_reversed.wav,,,,,0,124,124,124,,,z,0.34392616600962356,Correct Rejection,1.3512707599085747,99999,001,2025-11-20_13-11-42,
absent,0.5,SILENCE,NA,babble_65.wav,rotte_reversed.wav,knude_reversed.wav,,,,,0,125,125,125,,,z,0.3794755420240108,Correct Rejection,1.1865518139556661,99999,001,2025-11-20_13-11-42,
present,0.6,koldbrand_compressed.wav,koldbrand,babble_39.wav,djævel_reversed.wav,fedme_reversed.wav,,,,,0,126,126,126,,,z,0.6111408750002738,Miss,0.8448559444539194,99999,001,2025-11-20_13-11-42,
present,0.1,marked_compressed.wav,marked,babble_80.wav,lærer_reversed.wav,lyse_reversed.wav,,,,,0,127,127,127,,,z,0.7044518750044517,Miss,0.9445049286143385,99999,001,2025-11-20_13-11-42,
absent,0.7,SILENCE,NA,babble_28.wav,forpint_reversed.wav,stjerne_reversed.wav,,,,,0,128,128,128,,,m,0.7775387500005309,False Alarm,0.8520261292157736,99999,001,2025-11-20_13-11-42,
present,0.4,bombe_compressed.wav,bombe,babble_56.wav,forpint_reversed.wav,lækker_reversed.wav,,,,,0,129,129,129,,,z,0.640333583985921,Miss,1.442554911248473,99999,001,2025-11-20_13-11-42,
absent,0.1,SILENCE,NA,babble_73.wav,sikker_reversed.wav,fedme_reversed.wav,,,,,0,130,130,130,,,z,0.6632010409957729,Correct Rejection,0.6407760941774888,99999,001,2025-11-20_13-11-42,
absent,0.6,SILENCE,NA,babble_32.wav,latter_reversed.wav,marked_reversed.wav,,,,,0,131,131,131,,,z,0.43355754198273644,Correct Rejection,0.9843992194227226,99999,001,2025-11-20_13-11-42,
absent,0.6,SILENCE,NA,babble_64.wav,flirte_reversed.wav,fremskridt_reversed.wav,,,,,0,132,132,132,,,z,0.809686958004022,Correct Rejection,0.9359909074091534,99999,001,2025-11-20_13-11-42,
present,0.5,misbrug_compressed.wav,misbrug,babble_71.wav,lækker_reversed.wav,accept_reversed.wav,,,,,0,133,133,133,,,m,0.29539366700919345,Hit,1.2508567176293148,99999,001,2025-11-20_13-11-42,
present,0.3,accept_compressed.wav,accept,babble_7.wav,frihed_reversed.wav,kugle_reversed.wav,,,,,0,134,134,134,,,m,0.722793583991006,Hit,0.9052778082392653,99999,001,2025-11-20_13-11-42,
present,0.2,lyse_compressed.wav,lyse,babble_80.wav,sygdom_reversed.wav,venlig_reversed.wav,,,,,0,135,135,135,,,m,0.6286025840090588,Hit,0.8611784391489444,99999,001,2025-11-20_13-11-42,
absent,0.1,SILENCE,NA,babble_84.wav,kiste_reversed.wav,papir_reversed.wav,,,,,0,136,136,136,,,z,0.44111829198664054,Correct Rejection,1.0879695519592405,99999,001,2025-11-20_13-11-42,
absent,0.3,SILENCE,NA,babble_82.wav,lampe_reversed.wav,frihed_reversed.wav,,,,,0,137,137,137,,,z,0.7989265829965007,Correct Rejection,1.0337564038151594,99999,001,2025-11-20_13-11-42,
present,0.3,intim_compressed.wav,intim,babble_21.wav,boble_reversed.wav,lyse_reversed.wav,,,,,0,138,138,138,,,m,0.30742804100736976,Hit,1.0421607580758359,99999,001,2025-11-20_13-11-42,
absent,0.6,SILENCE,NA,babble_52.wav,tilfreds_reversed.wav,nedbrud_reversed.wav,,,,,0,139,139,139,,,z,0.4112131660222076,Correct Rejection,1.4422465613343545,99999,001,2025-11-20_13-11-42,
absent,0.1,SILENCE,NA,babble_14.wav,cirkel_reversed.wav,violin_reversed.wav,,,,,0,140,140,140,,,z,0.7500192919978872,Correct Rejection,0.9934525789568109,99999,001,2025-11-20_13-11-42,
present,0.4,violin_compressed.wav,violin,babble_52.wav,humor_reversed.wav,konge_reversed.wav,,,,,0,141,141,141,,,z,0.7330328329990152,Miss,0.87604220457229,99999,001,2025-11-20_13-11-42,
absent,0.7,SILENCE,NA,babble_21.wav,plakat_reversed.wav,spænding_reversed.wav,,,,,0,142,142,142,,,z,0.34170679200906307,Correct Rejection,1.3917087074344159,99999,001,2025-11-20_13-11-42,
present,0.6,stjerne_compressed.wav,stjerne,babble_69.wav,latter_reversed.wav,knude_reversed.wav,,,,,0,143,143,143,,,z,0.9756292090169154,Miss,1.3689341305396157,99999,001,2025-11-20_13-11-42,
absent,0.5,SILENCE,NA,babble_56.wav,passion_reversed.wav,offer_reversed.wav,,,,,0,144,144,144,,,z,1.4137387079827022,Correct Rejection,1.3204649017712766,99999,001,2025-11-20_13-11-42,
absent,0.7,SILENCE,NA,babble_62.wav,giftig_reversed.wav,morder_reversed.wav,,,,,0,145,145,145,,,z,0.6175928750017192,Correct Rejection,0.982870301719112,99999,001,2025-11-20_13-11-42,
present,0.1,frelser_compressed.wav,frelser,babble_37.wav,pude_reversed.wav,væmmes_reversed.wav,,,,,0,146,146,146,,,m,0.33270512497983873,Hit,1.333701314574804,99999,001,2025-11-20_13-11-42,
present,0.5,oprør_compressed.wav,oprør,babble_70.wav,forpint_reversed.wav,pervers_reversed.wav,,,,,0,147,147,147,,,z,0.44031241702032275,Miss,1.2815793054926783,99999,001,2025-11-20_13-11-42,
absent,0.2,SILENCE,NA,babble_29.wav,grusom_reversed.wav,knude_reversed.wav,,,,,0,148,148,148,,,z,0.9926355839997996,Correct Rejection,0.8429842657513567,99999,001,2025-11-20_13-11-42,
absent,0.2,SILENCE,NA,babble_96.wav,fedme_reversed.wav,avis_reversed.wav,,,,,0,149,149,149,,,z,0.546751249989029,Correct Rejection,1.350839346823511,99999,001,2025-11-20_13-11-42,
absent,0.5,SILENCE,NA,babble_94.wav,redskab_reversed.wav,utro_reversed.wav,,,,,0,150,150,150,,,z,0.7445860409934539,Correct Rejection,1.3736759350381025,99999,001,2025-11-20_13-11-42,
absent,0.5,SILENCE,NA,babble_60.wav,poesi_reversed.wav,djævel_reversed.wav,,,,,0,151,151,151,,,z,0.5773573339974973,Correct Rejection,1.2795554202141135,99999,001,2025-11-20_13-11-42,
absent,0.4,SILENCE,NA,babble_72.wav,blomstre_reversed.wav,papir_reversed.wav,,,,,0,152,152,152,,,z,0.6039077079913113,Correct Rejection,1.1594375864911397,99999,001,2025-11-20_13-11-42,
present,0.2,mester_compressed.wav,mester,babble_82.wav,ønske_reversed.wav,succes_reversed.wav,,,,,0,153,153,153,,,z,0.6162940000067465,Miss,0.7631369690147486,99999,001,2025-11-20_13-11-42,
present,0.2,heldig_compressed.wav,heldig,babble_56.wav,hjerte_reversed.wav,leder_reversed.wav,,,,,0,154,154,154,,,m,0.26395354099804536,Hit,1.0734888548876191,99999,001,2025-11-20_13-11-42,
absent,0.7,SILENCE,NA,babble_36.wav,gratis_reversed.wav,metal_reversed.wav,,,,,0,155,155,155,,,z,0.3666502920095809,Correct Rejection,0.7575105451066734,99999,001,2025-11-20_13-11-42,
present,0.7,plakat_compressed.wav,plakat,babble_81.wav,maling_reversed.wav,tumor_reversed.wav,,,,,0,156,156,156,,,m,0.30113291600719094,Hit,0.6663535015617744,99999,001,2025-11-20_13-11-42,
absent,0.4,SILENCE,NA,babble_27.wav,lampe_reversed.wav,spise_reversed.wav,,,,,0,157,157,157,,,z,0.40867145801894367,Correct Rejection,1.4865695191319908,99999,001,2025-11-20_13-11-42,
absent,0.6,SILENCE,NA,babble_54.wav,voldtægt_reversed.wav,patent_reversed.wav,,,,,0,158,158,158,,,z,0.4676255829981528,Correct Rejection,0.8227916134896605,99999,001,2025-11-20_13-11-42,
absent,0.6,SILENCE,NA,babble_11.wav,konge_reversed.wav,dollar_reversed.wav,,,,,0,159,159,159,,,z,0.4449534999730531,Correct Rejection,0.7433585017629039,99999,001,2025-11-20_13-11-42,
absent,0.5,SILENCE,NA,babble_82.wav,metal_reversed.wav,pude_reversed.wav,,,,,0,160,160,160,,,z,1.1690500830009114,Correct Rejection,0.6150230133814897,99999,001,2025-11-20_13-11-42,
absent,0.4,SILENCE,NA,babble_81.wav,illoyal_reversed.wav,tilfreds_reversed.wav,,,,,0,161,161,161,,,z,0.3619757909909822,Correct Rejection,0.8703818953424963,99999,001,2025-11-20_13-11-42,
absent,0.2,SILENCE,NA,babble_1.wav,blomstre_reversed.wav,kontor_reversed.wav,,,,,0,162,162,162,,,z,0.5529027500015218,Correct Rejection,1.1590160825377498,99999,001,2025-11-20_13-11-42,
absent,0.7,SILENCE,NA,babble_32.wav,måned_reversed.wav,museum_reversed.wav,,,,,0,163,163,163,,,z,0.5724444999941625,Correct Rejection,1.365891744365375,99999,001,2025-11-20_13-11-42,
absent,0.6,SILENCE,NA,babble_75.wav,selvmord_reversed.wav,blodig_reversed.wav,,,,,0,164,164,164,,,z,1.227881333004916,Correct Rejection,0.6085516080802051,99999,001,2025-11-20_13-11-42,
present,0.5,beskidt_compressed.wav,beskidt,babble_1.wav,oprørt_reversed.wav,museum_reversed.wav,,,,,0,165,165,165,,,z,0.4220448340056464,Miss,1.478557972124925,99999,001,2025-11-20_13-11-42,
absent,0.2,SILENCE,NA,babble_42.wav,fremskridt_reversed.wav,rabies_reversed.wav,,,,,0,166,166,166,,,z,0.5137651670083869,Correct Rejection,1.2230483776093632,99999,001,2025-11-20_13-11-42,
present,0.4,maling_compressed.wav,maling,babble_27.wav,forkert_reversed.wav,blomstre_reversed.wav,,,,,0,167,167,167,,,z,0.3805971250112634,Miss,1.3737065292432846,99999,001,2025-11-20_13-11-42,
present,0.6,borddug_compressed.wav,borddug,babble_41.wav,putte_reversed.wav,bombe_reversed.wav,,,,,0,168,168,168,,,z,0.4186393329873681,Miss,0.7548002803327539,99999,001,2025-11-20_13-11-42,
absent,0.4,SILENCE,NA,babble_35.wav,boble_reversed.wav,ugle_reversed.wav,,,,,0,169,169,169,,,z,1.757755582977552,Correct Rejection,0.7150295427544486,99999,001,2025-11-20_13-11-42,
absent,0.2,SILENCE,NA,babble_46.wav,redning_reversed.wav,traume_reversed.wav,,,,,0,170,170,170,,,z,0.3937331670022104,Correct Rejection,1.4786689185943647,99999,001,2025-11-20_13-11-42,
absent,0.2,SILENCE,NA,babble_48.wav,sejre_reversed.wav,rædsel_reversed.wav,,,,,0,171,171,171,,,m,0.3525078749808017,False Alarm,1.306503526202738,99999,001,2025-11-20_13-11-42,
absent,0.4,SILENCE,NA,babble_14.wav,kujon_reversed.wav,lærer_reversed.wav,,,,,0,172,172,172,,,m,0.7125000410014763,False Alarm,0.9845495749775894,99999,001,2025-11-20_13-11-42,
absent,0.2,SILENCE,NA,babble_89.wav,rådden_reversed.wav,kujon_reversed.wav,,,,,0,173,173,173,,,z,0.5157653749920428,Correct Rejection,1.4222153125194374,99999,001,2025-11-20_13-11-42,
absent,0.4,SILENCE,NA,babble_66.wav,oprørt_reversed.wav,lyse_reversed.wav,,,,,0,174,174,174,,,z,0.4580347090086434,Correct Rejection,1.381836818226668,99999,001,2025-11-20_13-11-42,
present,0.7,fængsel_compressed.wav,fængsel,babble_20.wav,festlig_reversed.wav,oprørt_reversed.wav,,,,,0,175,175,175,,,z,0.3344610409985762,Miss,1.0953229812829661,99999,001,2025-11-20_13-11-42,
present,0.6,trussel_compressed.wav,trussel,babble_41.wav,banner_reversed.wav,lærer_reversed.wav,,,,,0,176,176,176,,,m,0.29650720799691044,Hit,0.893576659766381,99999,001,2025-11-20_13-11-42,
present,0.7,selvmord_compressed.wav,selvmord,babble_97.wav,respekt_reversed.wav,forpint_reversed.wav,,,,,0,177,177,177,,,z,0.4784867499838583,Miss,0.9338463500386812,99999,001,2025-11-20_13-11-42,
present,0.6,beundret_compressed.wav,beundret,babble_8.wav,fjendtlig_reversed.wav,regnbue_reversed.wav,,,,,0,178,178,178,,,z,0.5857338340138085,Miss,0.8600025256077594,99999,001,2025-11-20_13-11-42,
absent,0.1,SILENCE,NA,babble_34.wav,rædsel_reversed.wav,leder_reversed.wav,,,,,0,179,179,179,,,z,0.4444962499837857,Correct Rejection,0.7002701974769896,99999,001,2025-11-20_13-11-42,
present,0.3,frygtsom_compressed.wav,frygtsom,babble_74.wav,fase_reversed.wav,patent_reversed.wav,,,,,0,180,180,180,,,z,0.34892862499691546,Miss,0.6071465761705386,99999,001,2025-11-20_13-11-42,
present,0.4,borddug_compressed.wav,borddug,babble_15.wav,regnbue_reversed.wav,passion_reversed.wav,,,,,0,181,181,181,,,z,0.2660546249826439,Miss,1.2908280396320646,99999,001,2025-11-20_13-11-42,
absent,0.5,SILENCE,NA,babble_12.wav,rædsel_reversed.wav,ørken_reversed.wav,,,,,0,182,182,182,,,z,0.6994421670096926,Correct Rejection,1.066298037268298,99999,001,2025-11-20_13-11-42,
absent,0.7,SILENCE,NA,babble_29.wav,slagtning_reversed.wav,plakat_reversed.wav,,,,,0,183,183,183,,,z,0.44167575001483783,Correct Rejection,0.6849908893023613,99999,001,2025-11-20_13-11-42,
present,0.4,tumor_compressed.wav,tumor,babble_35.wav,vandal_reversed.wav,kedel_reversed.wav,,,,,0,184,184,184,,,z,0.5364025829767343,Miss,1.0148729471634672,99999,001,2025-11-20_13-11-42,
present,0.7,skammel_compressed.wav,skammel,babble_67.wav,fjollet_reversed.wav,beskidt_reversed.wav,,,,,0,185,185,185,,,m,0.5330646670190617,Hit,0.7263478274406777,99999,001,2025-11-20_13-11-42,
absent,0.5,SILENCE,NA,babble_59.wav,brutal_reversed.wav,dæmpet_reversed.wav,,,,,0,186,186,186,,,z,0.45590224998886697,Correct Rejection,0.9016646076571615,99999,001,2025-11-20_13-11-42,
present,0.2,flirte_compressed.wav,flirte,babble_16.wav,trussel_reversed.wav,skuffe_reversed.wav,,,,,0,187,187,187,,,z,0.6627839160209987,Miss,1.285990640801379,99999,001,2025-11-20_13-11-42,
present,0.4,penge_compressed.wav,penge,babble_48.wav,flirte_reversed.wav,rotte_reversed.wav,,,,,0,188,188,188,,,m,0.35498845801339485,Hit,1.4745627549580038,99999,001,2025-11-20_13-11-42,
present,0.6,forpint_compressed.wav,forpint,babble_36.wav,ledning_reversed.wav,forkert_reversed.wav,,,,,0,189,189,189,,,z,0.9015278749866411,Miss,1.361234138775107,99999,001,2025-11-20_13-11-42,
absent,0.3,SILENCE,NA,babble_19.wav,violin_reversed.wav,genert_reversed.wav,,,,,0,190,190,190,,,z,0.5019608330039773,Correct Rejection,0.9819850462187586,99999,001,2025-11-20_13-11-42,
absent,0.1,SILENCE,NA,babble_62.wav,beskidt_reversed.wav,bombe_reversed.wav,,,,,0,191,191,191,,,z,0.4525315839855466,Correct Rejection,0.6771856234656719,99999,001,2025-11-20_13-11-42,
present,0.7,engel_compressed.wav,engel,babble_5.wav,skyldig_reversed.wav,traume_reversed.wav,,,,,0,192,192,192,,,z,1.6798558750015218,Miss,0.6196294718384648,99999,001,2025-11-20_13-11-42,
present,0.7,ferie_compressed.wav,ferie,babble_96.wav,røver_reversed.wav,sandhed_reversed.wav,,,,,0,193,193,193,,,z,0.6656529169995338,Miss,0.5755775584519597,99999,001,2025-11-20_13-11-42,
present,0.1,røver_compressed.wav,røver,babble_95.wav,natur_reversed.wav,mester_reversed.wav,,,,,0,194,194,194,,,m,0.3597087909874972,Hit,0.7014738695708572,99999,001,2025-11-20_13-11-42,
present,0.3,tortur_compressed.wav,tortur,babble_78.wav,forfald_reversed.wav,traume_reversed.wav,,,,,0,195,195,195,,,m,0.5470322079781909,Hit,1.2893370521375092,99999,001,2025-11-20_13-11-42,
present,0.2,ledning_compressed.wav,ledning,babble_6.wav,grimme_reversed.wav,lyse_reversed.wav,,,,,0,196,196,196,,,m,0.31450524998945184,Hit,0.9182156932465925,99999,001,2025-11-20_13-11-42,
present,0.4,sindssyg_compressed.wav,sindssyg,babble_27.wav,luksus_reversed.wav,gave_reversed.wav,,,,,0,197,197,197,,,m,0.5001979999942705,Hit,0.7905400652362872,99999,001,2025-11-20_13-11-42,
absent,0.3,SILENCE,NA,babble_88.wav,ankel_reversed.wav,motor_reversed.wav,,,,,0,198,198,198,,,z,0.8945332090079319,Correct Rejection,0.7067372276930077,99999,001,2025-11-20_13-11-42,
present,0.1,fedme_compressed.wav,fedme,babble_27.wav,grimme_reversed.wav,fedme_reversed.wav,,,,,0,199,199,199,,,m,1.1825400840025395,Hit,1.3668229297381398,99999,001,2025-11-20_13-11-42,
absent,0.4,SILENCE,NA,babble_39.wav,forfald_reversed.wav,albue_reversed.wav,,,,,0,200,200,200,,,z,0.2881318330182694,Correct Rejection,1.4585178515799102,99999,001,2025-11-20_13-11-42,
present,0.5,beundret_compressed.wav,beundret,babble_64.wav,tortur_reversed.wav,succes_reversed.wav,,,,,0,201,201,201,,,m,0.33006804098840803,Hit,1.2972666460402986,99999,001,2025-11-20_13-11-42,
present,0.4,spise_compressed.wav,spise,babble_48.wav,genert_reversed.wav,latter_reversed.wav,,,,,0,202,202,202,,,m,1.344141874986235,Hit,0.5271228753044953,99999,001,2025-11-20_13-11-42,
absent,0.4,SILENCE,NA,babble_3.wav,nonne_reversed.wav,krise_reversed.wav,,,,,0,203,203,203,,,m,0.4602909999957774,False Alarm,0.5161105038851173,99999,001,2025-11-20_13-11-42,
absent,0.2,SILENCE,NA,babble_9.wav,feber_reversed.wav,enhed_reversed.wav,,,,,0,204,204,204,,,z,0.3660945840238128,Correct Rejection,1.2308076547828186,99999,001,2025-11-20_13-11-42,
present,0.5,kvæles_compressed.wav,kvæles,babble_9.wav,himlen_reversed.wav,brænde_reversed.wav,,,,,0,205,205,205,,,z,0.5363187920011114,Miss,1.2603076765059038,99999,001,2025-11-20_13-11-42,
absent,0.4,SILENCE,NA,babble_80.wav,sandhed_reversed.wav,glæde_reversed.wav,,,,,0,206,206,206,,,z,0.46707504100049846,Correct Rejection,0.8288069103548696,99999,001,2025-11-20_13-11-42,
present,0.4,hader_compressed.wav,hader,babble_44.wav,fjollet_reversed.wav,heldig_reversed.wav,,,,,0,207,207,207,,,z,0.30474266700912267,Miss,1.2974918348530584,99999,001,2025-11-20_13-11-42,
present,0.2,brutal_compressed.wav,brutal,babble_0.wav,metal_reversed.wav,varme_reversed.wav,,,,,0,208,208,208,,,z,1.0580731669906527,Miss,0.6285699029082964,99999,001,2025-11-20_13-11-42,
absent,0.6,SILENCE,NA,babble_54.wav,konge_reversed.wav,trussel_reversed.wav,,,,,0,209,209,209,,,z,0.47399583301739767,Correct Rejection,1.1606132817563142,99999,001,2025-11-20_13-11-42,
