signal_type,compression_level,prime_file,correct_word,babbling_file,mask1_file,mask2_file,practice.thisRepN,practice.thisTrialN,practice.thisN,practice.thisIndex,main.thisRepN,main.thisTrialN,main.thisN,main.thisIndex,thisRow.t,notes,response_key,rt,trial_outcome,babble_duration,Participant ID,Session,date,
absent,0.4,SILENCE,NA,bab20.wav,djævel_reversed.wav,forpint_reversed.wav,0,0,0,0,0,-1,-1,0,,,z,2.3528841250000028,Correct Rejection,1.3972979136971269,victor1,001,2025-11-13_13-47-52,
present,0.5,rådden_compressed.wav,rådden,bab9.wav,fjendtlig_reversed.wav,søsyg_reversed.wav,0,1,1,1,0,-1,-1,0,,,m,1.9667401670000118,Hit,0.6160655585452698,victor1,001,2025-11-13_13-47-52,
absent,0.2,SILENCE,NA,bab21.wav,museum_reversed.wav,koldbrand_reversed.wav,0,2,2,2,0,-1,-1,0,,,z,1.7564759999999637,Correct Rejection,0.6910581187742607,victor1,001,2025-11-13_13-47-52,
present,0.2,magisk_compressed.wav,magisk,bab13.wav,kedel_reversed.wav,fase_reversed.wav,0,3,3,3,0,-1,-1,0,,,m,1.7620226250000428,Hit,0.6426951246598194,victor1,001,2025-11-13_13-47-52,
present,0.7,grimme_compressed.wav,grimme,bab5.wav,putte_reversed.wav,gade_reversed.wav,0,4,4,4,0,-1,-1,0,,,m,0.7523924169999532,Hit,1.101734411132728,victor1,001,2025-11-13_13-47-52,
absent,0.7,SILENCE,NA,bab15.wav,kedel_reversed.wav,nonsens_reversed.wav,0,5,5,5,0,-1,-1,0,,,z,1.3674975419999669,Correct Rejection,0.5032285259725963,victor1,001,2025-11-13_13-47-52,
present,0.1,ketchup_compressed.wav,ketchup,bab14.wav,himmel_reversed.wav,offer_reversed.wav,0,6,6,6,0,-1,-1,0,,,m,1.6640210420000017,Hit,1.4462639689109134,victor1,001,2025-11-13_13-47-52,
absent,0.6,SILENCE,NA,bab10.wav,illoyal_reversed.wav,stjerne_reversed.wav,0,7,7,7,0,-1,-1,0,,,m,2.3474688329999935,False Alarm,1.0356046609006624,victor1,001,2025-11-13_13-47-52,
absent,0.5,SILENCE,NA,bab21.wav,redskab_reversed.wav,engel_reversed.wav,0,8,8,8,0,-1,-1,0,,,z,0.8436188329999936,Correct Rejection,1.389314359153771,victor1,001,2025-11-13_13-47-52,
absent,0.1,SILENCE,NA,bab5.wav,museum_reversed.wav,grusom_reversed.wav,0,9,9,9,0,-1,-1,0,,,z,1.2163079169999946,Correct Rejection,0.9145180968544624,victor1,001,2025-11-13_13-47-52,
absent,0.3,SILENCE,NA,bab8.wav,ørken_reversed.wav,rådden_reversed.wav,0,10,10,10,0,-1,-1,0,,,z,0.9103912919999857,Correct Rejection,0.793830888811718,victor1,001,2025-11-13_13-47-52,
present,0.4,brænde_compressed.wav,brænde,bab5.wav,slagtning_reversed.wav,putte_reversed.wav,0,11,11,11,0,-1,-1,0,,,m,0.5529832910000323,Hit,1.2003398584930225,victor1,001,2025-11-13_13-47-52,
present,0.6,poesi_compressed.wav,poesi,bab8.wav,feber_reversed.wav,plakat_reversed.wav,0,12,12,12,0,-1,-1,0,,,m,0.9431084580000402,Hit,0.9190113294472182,victor1,001,2025-11-13_13-47-52,
present,0.3,poesi_compressed.wav,poesi,bab20.wav,kage_reversed.wav,kedel_reversed.wav,0,13,13,13,0,-1,-1,0,,,m,0.5534078329999943,Hit,0.5910638615142477,victor1,001,2025-11-13_13-47-52,
present,0.2,traume_compressed.wav,traume,bab9.wav,regnbue_reversed.wav,taxa_reversed.wav,,,,,0,0,0,0,,,m,1.48787191699995,Hit,1.0861443566620128,victor1,001,2025-11-13_13-47-52,
present,0.1,taber_compressed.wav,taber,bab9.wav,rabies_reversed.wav,sollys_reversed.wav,,,,,0,1,1,1,,,m,8.998154749999912,Hit,1.0535439113112401,victor1,001,2025-11-13_13-47-52,
absent,0.3,SILENCE,NA,bab10.wav,regnbue_reversed.wav,forpint_reversed.wav,,,,,0,2,2,2,,,z,0.7429333329999963,Correct Rejection,0.9312668477832088,victor1,001,2025-11-13_13-47-52,
absent,0.7,SILENCE,NA,bab8.wav,knude_reversed.wav,brænde_reversed.wav,,,,,0,3,3,3,,,z,1.7281909999999243,Correct Rejection,1.3943786843439685,victor1,001,2025-11-13_13-47-52,
absent,0.6,SILENCE,NA,bab20.wav,giftig_reversed.wav,lampe_reversed.wav,,,,,0,4,4,4,,,z,2.0981773339999563,Correct Rejection,1.119453573301921,victor1,001,2025-11-13_13-47-52,
present,0.2,tortur_compressed.wav,tortur,bab14.wav,ankel_reversed.wav,beskidt_reversed.wav,,,,,0,5,5,5,,,m,0.7111605419999023,Hit,0.7957804017447474,victor1,001,2025-11-13_13-47-52,
present,0.7,engel_compressed.wav,engel,bab13.wav,glæde_reversed.wav,hader_reversed.wav,,,,,0,6,6,6,,,z,4.784118458999956,Miss,1.2013915207641568,victor1,001,2025-11-13_13-47-52,
present,0.1,cirkus_compressed.wav,cirkus,bab8.wav,traume_reversed.wav,kedel_reversed.wav,,,,,0,7,7,7,,,m,0.44127495800000816,Hit,1.2897703875175095,victor1,001,2025-11-13_13-47-52,
absent,0.7,SILENCE,NA,bab4.wav,utro_reversed.wav,utro_reversed.wav,,,,,0,8,8,8,,,z,1.4869626250000465,Correct Rejection,0.5190815133424498,victor1,001,2025-11-13_13-47-52,
present,0.6,trussel_compressed.wav,trussel,bab10.wav,maling_reversed.wav,kiste_reversed.wav,,,,,0,9,9,9,,,m,0.5564103750000413,Hit,0.8099758572823869,victor1,001,2025-11-13_13-47-52,
absent,0.7,SILENCE,NA,bab9.wav,kærtegn_reversed.wav,magisk_reversed.wav,,,,,0,10,10,10,,,z,0.5466065840000738,Correct Rejection,0.9603424171839132,victor1,001,2025-11-13_13-47-52,
absent,0.1,SILENCE,NA,bab20.wav,blomstre_reversed.wav,slave_reversed.wav,,,,,0,11,11,11,,,z,2.000988541999959,Correct Rejection,1.2249379613839944,victor1,001,2025-11-13_13-47-52,
present,0.7,passion_compressed.wav,passion,bab9.wav,kæle_reversed.wav,jubel_reversed.wav,,,,,0,12,12,12,,,m,0.3307468750000453,Hit,0.5767279529789648,victor1,001,2025-11-13_13-47-52,
present,0.2,varme_compressed.wav,varme,bab5.wav,tortur_reversed.wav,rabies_reversed.wav,,,,,0,13,13,13,,,m,1.3995396249999885,Hit,1.130544309948247,victor1,001,2025-11-13_13-47-52,
present,0.1,røver_compressed.wav,røver,bab9.wav,jubel_reversed.wav,sandhed_reversed.wav,,,,,0,14,14,14,,,m,0.9126842499999839,Hit,0.5907495856199995,victor1,001,2025-11-13_13-47-52,
absent,0.2,SILENCE,NA,bab9.wav,maling_reversed.wav,metal_reversed.wav,,,,,0,15,15,15,,,z,5.1933045000000675,Correct Rejection,0.6116275566530989,victor1,001,2025-11-13_13-47-52,
present,0.4,slave_compressed.wav,slave,bab15.wav,hånlig_reversed.wav,avis_reversed.wav,,,,,0,16,16,16,,,m,0.571028124999998,Hit,0.9975055897951931,victor1,001,2025-11-13_13-47-52,
present,0.7,morder_compressed.wav,morder,bab21.wav,flirte_reversed.wav,sindssyg_reversed.wav,,,,,0,17,17,17,,,m,0.28026870799999415,Hit,0.9315486973842916,victor1,001,2025-11-13_13-47-52,
present,0.1,tilfreds_compressed.wav,tilfreds,bab8.wav,ørken_reversed.wav,brutal_reversed.wav,,,,,0,18,18,18,,,m,0.30236504100003003,Hit,0.6147095532625649,victor1,001,2025-11-13_13-47-52,
present,0.4,diamant_compressed.wav,diamant,bab6.wav,museum_reversed.wav,statue_reversed.wav,,,,,0,19,19,19,,,m,0.29699858300000415,Hit,1.124625247402062,victor1,001,2025-11-13_13-47-52,
present,0.2,dæmon_compressed.wav,dæmon,bab15.wav,fængsel_reversed.wav,dæmon_reversed.wav,,,,,0,20,20,20,,,m,0.3994383750000452,Hit,1.3555274435549014,victor1,001,2025-11-13_13-47-52,
absent,0.5,SILENCE,NA,bab20.wav,plakat_reversed.wav,sæde_reversed.wav,,,,,0,21,21,21,,,z,0.878965624999978,Correct Rejection,1.4732542602231158,victor1,001,2025-11-13_13-47-52,
absent,0.3,SILENCE,NA,bab10.wav,slagtning_reversed.wav,gratis_reversed.wav,,,,,0,22,22,22,,,z,0.48038720800002466,Correct Rejection,1.3619134666654407,victor1,001,2025-11-13_13-47-52,
present,0.3,ydmyg_compressed.wav,ydmyg,bab4.wav,luksus_reversed.wav,grusom_reversed.wav,,,,,0,23,23,23,,,m,0.9421646250000322,Hit,1.189240252715701,victor1,001,2025-11-13_13-47-52,
present,0.7,lærer_compressed.wav,lærer,bab21.wav,fjendtlig_reversed.wav,ledning_reversed.wav,,,,,0,24,24,24,,,m,1.4475332079999816,Hit,1.0275516450292699,victor1,001,2025-11-13_13-47-52,
present,0.5,sygdom_compressed.wav,sygdom,bab6.wav,rædsel_reversed.wav,skade_reversed.wav,,,,,0,25,25,25,,,m,0.35235754200004976,Hit,0.9995773632086292,victor1,001,2025-11-13_13-47-52,
present,0.4,frihed_compressed.wav,frihed,bab13.wav,accept_reversed.wav,kage_reversed.wav,,,,,0,26,26,26,,,m,0.20175066699994204,Hit,1.3188765191875422,victor1,001,2025-11-13_13-47-52,
absent,0.5,SILENCE,NA,bab9.wav,mester_reversed.wav,accept_reversed.wav,,,,,0,27,27,27,,,z,1.1849048330000187,Correct Rejection,0.7823360422695955,victor1,001,2025-11-13_13-47-52,
absent,0.5,SILENCE,NA,bab9.wav,gade_reversed.wav,offer_reversed.wav,,,,,0,28,28,28,,,z,2.2463461670000697,Correct Rejection,1.091643538364654,victor1,001,2025-11-13_13-47-52,
present,0.5,genstand_compressed.wav,genstand,bab14.wav,utro_reversed.wav,utro_reversed.wav,,,,,0,29,29,29,,,m,0.2943801669999857,Hit,0.5419275558125118,victor1,001,2025-11-13_13-47-52,
absent,0.2,SILENCE,NA,bab4.wav,lærer_reversed.wav,traume_reversed.wav,,,,,0,30,30,30,,,z,1.2418786250000267,Correct Rejection,1.369423693382479,victor1,001,2025-11-13_13-47-52,
present,0.7,bryllup_compressed.wav,bryllup,bab5.wav,engel_reversed.wav,himlen_reversed.wav,,,,,0,31,31,31,,,m,1.78220654200004,Hit,1.4496611965214408,victor1,001,2025-11-13_13-47-52,
absent,0.3,SILENCE,NA,bab15.wav,skuffe_reversed.wav,gaffel_reversed.wav,,,,,0,32,32,32,,,z,0.8840232499999274,Correct Rejection,0.503474809928328,victor1,001,2025-11-13_13-47-52,
present,0.6,himlen_compressed.wav,himlen,bab20.wav,måned_reversed.wav,putte_reversed.wav,,,,,0,33,33,33,,,m,0.2811314589999938,Hit,1.091448744254482,victor1,001,2025-11-13_13-47-52,
absent,0.4,SILENCE,NA,bab4.wav,voldtægt_reversed.wav,tumor_reversed.wav,,,,,0,34,34,34,,,z,2.2251186249999364,Correct Rejection,1.4867558770890432,victor1,001,2025-11-13_13-47-52,
absent,0.2,SILENCE,NA,bab14.wav,motor_reversed.wav,forfald_reversed.wav,,,,,0,35,35,35,,,z,0.8909766250000075,Correct Rejection,1.154333709942673,victor1,001,2025-11-13_13-47-52,
absent,0.1,SILENCE,NA,bab10.wav,slagtning_reversed.wav,oprørt_reversed.wav,,,,,0,36,36,36,,,z,1.4650398750000022,Correct Rejection,0.5421608987165341,victor1,001,2025-11-13_13-47-52,
present,0.1,brutal_compressed.wav,brutal,bab20.wav,papir_reversed.wav,lampe_reversed.wav,,,,,0,37,37,37,,,m,0.11760054199999104,Hit,0.7110352802947332,victor1,001,2025-11-13_13-47-52,
present,0.4,dæmpet_compressed.wav,dæmpet,bab20.wav,offer_reversed.wav,skuffe_reversed.wav,,,,,0,38,38,38,,,m,0.2959762909999881,Hit,1.0968406222898786,victor1,001,2025-11-13_13-47-52,
absent,0.6,SILENCE,NA,bab4.wav,bifald_reversed.wav,sollys_reversed.wav,,,,,0,39,39,39,,,z,2.849431083000127,Correct Rejection,1.2330982846701664,victor1,001,2025-11-13_13-47-52,
present,0.2,konge_compressed.wav,konge,bab21.wav,krise_reversed.wav,himlen_reversed.wav,,,,,0,40,40,40,,,m,0.26796570800001973,Hit,0.7876195413416394,victor1,001,2025-11-13_13-47-52,
absent,0.1,SILENCE,NA,bab13.wav,opstemt_reversed.wav,sexet_reversed.wav,,,,,0,41,41,41,,,z,0.5513032920000569,Correct Rejection,0.903003948657096,victor1,001,2025-11-13_13-47-52,
absent,0.4,SILENCE,NA,bab8.wav,kiste_reversed.wav,ørken_reversed.wav,,,,,0,42,42,42,,,z,0.9876952499998879,Correct Rejection,0.6512185558995646,victor1,001,2025-11-13_13-47-52,
absent,0.1,SILENCE,NA,bab15.wav,knude_reversed.wav,morder_reversed.wav,,,,,0,43,43,43,,,z,2.0616012919999775,Correct Rejection,1.256660207019759,victor1,001,2025-11-13_13-47-52,
present,0.1,skyldig_compressed.wav,skyldig,bab5.wav,traume_reversed.wav,luksus_reversed.wav,,,,,0,44,44,44,,,m,0.7188444589999108,Hit,0.830694570620506,victor1,001,2025-11-13_13-47-52,
absent,0.2,SILENCE,NA,bab13.wav,hage_reversed.wav,væmmes_reversed.wav,,,,,0,45,45,45,,,m,2.290065666999908,False Alarm,0.6389513478241523,victor1,001,2025-11-13_13-47-52,
absent,0.1,SILENCE,NA,bab20.wav,nonsens_reversed.wav,rabies_reversed.wav,,,,,0,46,46,46,,,z,1.4798854160001156,Correct Rejection,1.293060205181124,victor1,001,2025-11-13_13-47-52,
absent,0.3,SILENCE,NA,bab21.wav,smerte_reversed.wav,heldig_reversed.wav,,,,,0,47,47,47,,,z,3.4310439579999183,Correct Rejection,0.7596754703852179,victor1,001,2025-11-13_13-47-52,
absent,0.6,SILENCE,NA,bab20.wav,forfald_reversed.wav,skammel_reversed.wav,,,,,0,48,48,48,,,z,2.4804499580000083,Correct Rejection,0.6321964684083878,victor1,001,2025-11-13_13-47-52,
absent,0.4,SILENCE,NA,bab20.wav,vindue_reversed.wav,rådden_reversed.wav,,,,,0,49,49,49,,,z,2.0589051669999208,Correct Rejection,0.5204410308813027,victor1,001,2025-11-13_13-47-52,
absent,0.4,SILENCE,NA,bab13.wav,redskab_reversed.wav,skade_reversed.wav,,,,,0,50,50,50,,,z,1.1404892499999733,Correct Rejection,0.7479248299771049,victor1,001,2025-11-13_13-47-52,
absent,0.5,SILENCE,NA,bab4.wav,skønhed_reversed.wav,oprørt_reversed.wav,,,,,0,51,51,51,,,z,2.8815081669999927,Correct Rejection,0.5633895874946655,victor1,001,2025-11-13_13-47-52,
present,0.6,bange_compressed.wav,bange,bab4.wav,vandal_reversed.wav,skammel_reversed.wav,,,,,0,52,52,52,,,m,0.6533475830001407,Hit,1.389794451552379,victor1,001,2025-11-13_13-47-52,
present,0.7,musik_compressed.wav,musik,bab4.wav,enhed_reversed.wav,selvmord_reversed.wav,,,,,0,53,53,53,,,m,0.6623175839999931,Hit,1.1435692136757858,victor1,001,2025-11-13_13-47-52,
present,0.3,blomstre_compressed.wav,blomstre,bab4.wav,bifald_reversed.wav,ugle_reversed.wav,,,,,0,54,54,54,,,m,0.8535474590000831,Hit,1.2450508070429305,victor1,001,2025-11-13_13-47-52,
absent,0.3,SILENCE,NA,bab13.wav,sæde_reversed.wav,varme_reversed.wav,,,,,0,55,55,55,,,z,1.7071159580000312,Correct Rejection,1.3373897679716495,victor1,001,2025-11-13_13-47-52,
absent,0.4,SILENCE,NA,bab6.wav,søsyg_reversed.wav,krise_reversed.wav,,,,,0,56,56,56,,,m,8.144014792000007,False Alarm,0.9469407207457441,victor1,001,2025-11-13_13-47-52,
absent,0.5,SILENCE,NA,bab20.wav,enhed_reversed.wav,dæmpet_reversed.wav,,,,,0,57,57,57,,,z,0.6461382919999323,Correct Rejection,1.358246043505953,victor1,001,2025-11-13_13-47-52,
absent,0.5,SILENCE,NA,bab21.wav,fængsel_reversed.wav,modgang_reversed.wav,,,,,0,58,58,58,,,z,0.616872333999936,Correct Rejection,1.282674046847316,victor1,001,2025-11-13_13-47-52,
present,0.3,motor_compressed.wav,motor,bab21.wav,heldig_reversed.wav,bombe_reversed.wav,,,,,0,59,59,59,,,m,0.6276572080000733,Hit,1.2323742877622532,victor1,001,2025-11-13_13-47-52,
present,0.6,nedbrud_compressed.wav,nedbrud,bab13.wav,ketchup_reversed.wav,sandhed_reversed.wav,,,,,0,60,60,60,,,m,0.910545749999983,Hit,1.0235033238731328,victor1,001,2025-11-13_13-47-52,
present,0.5,ønske_compressed.wav,ønske,bab10.wav,pervers_reversed.wav,kedel_reversed.wav,,,,,0,61,61,61,,,m,0.2594370000001618,Hit,0.7686995046228938,victor1,001,2025-11-13_13-47-52,
absent,0.5,SILENCE,NA,bab20.wav,fjollet_reversed.wav,frygtsom_reversed.wav,,,,,0,62,62,62,,,z,2.432198250000056,Correct Rejection,1.0628880696712364,victor1,001,2025-11-13_13-47-52,
absent,0.5,SILENCE,NA,bab9.wav,væmmes_reversed.wav,putte_reversed.wav,,,,,0,63,63,63,,,z,1.7608849590001228,Correct Rejection,0.5996972804486863,victor1,001,2025-11-13_13-47-52,
absent,0.7,SILENCE,NA,bab21.wav,væmmes_reversed.wav,morder_reversed.wav,,,,,0,64,64,64,,,z,0.7569421660000444,Correct Rejection,0.6082202746186605,victor1,001,2025-11-13_13-47-52,
absent,0.6,SILENCE,NA,bab4.wav,heldig_reversed.wav,pjece_reversed.wav,,,,,0,65,65,65,,,z,0.4464276669998526,Correct Rejection,1.0201280508993475,victor1,001,2025-11-13_13-47-52,
present,0.7,vandfald_compressed.wav,vandfald,bab21.wav,fjollet_reversed.wav,sygdom_reversed.wav,,,,,0,66,66,66,,,m,0.5296281670000553,Hit,0.7216417522434271,victor1,001,2025-11-13_13-47-52,
absent,0.6,SILENCE,NA,bab8.wav,stjerne_reversed.wav,viden_reversed.wav,,,,,0,67,67,67,,,z,1.0142197499999384,Correct Rejection,0.7124860384075612,victor1,001,2025-11-13_13-47-52,
present,0.7,jubel_compressed.wav,jubel,bab8.wav,ensom_reversed.wav,oprør_reversed.wav,,,,,0,68,68,68,,,m,0.9785968329999832,Hit,1.0332956977787924,victor1,001,2025-11-13_13-47-52,
absent,0.2,SILENCE,NA,bab14.wav,krise_reversed.wav,grimme_reversed.wav,,,,,0,69,69,69,,,z,0.570201207999844,Correct Rejection,1.3487464406334366,victor1,001,2025-11-13_13-47-52,
present,0.3,minder_compressed.wav,minder,bab13.wav,nonne_reversed.wav,konkurs_reversed.wav,,,,,0,70,70,70,,,m,0.2521085000000767,Hit,1.4134884819815008,victor1,001,2025-11-13_13-47-52,
present,0.1,bange_compressed.wav,bange,bab15.wav,koldbrand_reversed.wav,affald_reversed.wav,,,,,0,71,71,71,,,m,0.34140545900004327,Hit,1.0079287908292032,victor1,001,2025-11-13_13-47-52,
present,0.7,opstemt_compressed.wav,opstemt,bab14.wav,kujon_reversed.wav,måned_reversed.wav,,,,,0,72,72,72,,,m,0.2516055419998793,Hit,0.6847153032688539,victor1,001,2025-11-13_13-47-52,
absent,0.7,SILENCE,NA,bab9.wav,genert_reversed.wav,cirkel_reversed.wav,,,,,0,73,73,73,,,z,0.3635426250000364,Correct Rejection,1.0455155474899223,victor1,001,2025-11-13_13-47-52,
present,0.6,ledning_compressed.wav,ledning,bab4.wav,oprørt_reversed.wav,ørken_reversed.wav,,,,,0,74,74,74,,,m,0.4651645839999219,Hit,1.3654488991350329,victor1,001,2025-11-13_13-47-52,
present,0.2,ugle_compressed.wav,ugle,bab4.wav,metal_reversed.wav,kiste_reversed.wav,,,,,0,75,75,75,,,m,1.7201958749999449,Hit,1.0980545484545194,victor1,001,2025-11-13_13-47-52,
absent,0.1,SILENCE,NA,bab4.wav,kujon_reversed.wav,hjerte_reversed.wav,,,,,0,76,76,76,,,z,0.8991627089999383,Correct Rejection,1.3615858826112723,victor1,001,2025-11-13_13-47-52,
absent,0.1,SILENCE,NA,bab5.wav,taber_reversed.wav,gade_reversed.wav,,,,,0,77,77,77,,,z,1.833221291999962,Correct Rejection,1.1267953235798922,victor1,001,2025-11-13_13-47-52,
present,0.4,banner_compressed.wav,banner,bab20.wav,redskab_reversed.wav,pjece_reversed.wav,,,,,0,78,78,78,,,m,0.3681300000000647,Hit,0.7013294950585077,victor1,001,2025-11-13_13-47-52,
present,0.3,metal_compressed.wav,metal,bab20.wav,himlen_reversed.wav,violin_reversed.wav,,,,,0,79,79,79,,,m,0.5679480420001255,Hit,0.5791409095399987,victor1,001,2025-11-13_13-47-52,
present,0.5,redning_compressed.wav,redning,bab8.wav,vindue_reversed.wav,skade_reversed.wav,,,,,0,80,80,80,,,m,0.6750512920000347,Hit,1.4928286980653587,victor1,001,2025-11-13_13-47-52,
absent,0.1,SILENCE,NA,bab9.wav,søsyg_reversed.wav,gade_reversed.wav,,,,,0,81,81,81,,,m,2.963447290999966,False Alarm,0.5154112086253942,victor1,001,2025-11-13_13-47-52,
absent,0.4,SILENCE,NA,bab15.wav,fjollet_reversed.wav,skønhed_reversed.wav,,,,,0,82,82,82,,,z,1.7499279579999438,Correct Rejection,1.3754854577637028,victor1,001,2025-11-13_13-47-52,
present,0.6,frelser_compressed.wav,frelser,bab20.wav,mester_reversed.wav,taxa_reversed.wav,,,,,0,83,83,83,,,m,1.3981544589998975,Hit,1.103340854189419,victor1,001,2025-11-13_13-47-52,
absent,0.6,SILENCE,NA,bab14.wav,statue_reversed.wav,fængsel_reversed.wav,,,,,0,84,84,84,,,z,0.8863625419999153,Correct Rejection,0.7578398517643731,victor1,001,2025-11-13_13-47-52,
present,0.1,hårnål_compressed.wav,hårnål,bab21.wav,rotte_reversed.wav,slagtning_reversed.wav,,,,,0,85,85,85,,,m,1.3838350410001112,Hit,1.4135678097832167,victor1,001,2025-11-13_13-47-52,
absent,0.4,SILENCE,NA,bab5.wav,ugle_reversed.wav,forfald_reversed.wav,,,,,0,86,86,86,,,z,1.4715120419998584,Correct Rejection,1.3364815992805337,victor1,001,2025-11-13_13-47-52,
present,0.2,ønske_compressed.wav,ønske,bab21.wav,krise_reversed.wav,tilfreds_reversed.wav,,,,,0,87,87,87,,,m,0.5968070419999094,Hit,1.060437584153946,victor1,001,2025-11-13_13-47-52,
absent,0.2,SILENCE,NA,bab15.wav,banner_reversed.wav,søsyg_reversed.wav,,,,,0,88,88,88,,,z,6.860983125000075,Correct Rejection,1.4381801610053082,victor1,001,2025-11-13_13-47-52,
present,0.6,gave_compressed.wav,gave,bab14.wav,illoyal_reversed.wav,illoyal_reversed.wav,,,,,0,89,89,89,,,z,2.667002334000017,Miss,0.9173004809925225,victor1,001,2025-11-13_13-47-52,
absent,0.4,SILENCE,NA,bab21.wav,ønske_reversed.wav,kærtegn_reversed.wav,,,,,0,90,90,90,,,z,1.2067226669998945,Correct Rejection,0.664243855587749,victor1,001,2025-11-13_13-47-52,
present,0.1,varme_compressed.wav,varme,bab8.wav,konge_reversed.wav,humor_reversed.wav,,,,,0,91,91,91,,,m,0.6506889580000461,Hit,0.8593181728660735,victor1,001,2025-11-13_13-47-52,
absent,0.4,SILENCE,NA,bab20.wav,bygning_reversed.wav,genert_reversed.wav,,,,,0,92,92,92,,,z,1.027636917000109,Correct Rejection,1.3406349883722757,victor1,001,2025-11-13_13-47-52,
present,0.7,utro_compressed.wav,utro,bab21.wav,dollar_reversed.wav,succes_reversed.wav,,,,,0,93,93,93,,,m,0.45068258299988884,Hit,1.1414324867901877,victor1,001,2025-11-13_13-47-52,
present,0.7,væmmes_compressed.wav,væmmes,bab21.wav,dæmon_reversed.wav,trussel_reversed.wav,,,,,0,94,94,94,,,m,0.9234933750001346,Hit,1.4966760364118041,victor1,001,2025-11-13_13-47-52,
present,0.2,frygtsom_compressed.wav,frygtsom,bab10.wav,succes_reversed.wav,marked_reversed.wav,,,,,0,95,95,95,,,m,0.3899873329999082,Hit,0.5060766991727196,victor1,001,2025-11-13_13-47-52,
absent,0.3,SILENCE,NA,bab13.wav,konge_reversed.wav,skammel_reversed.wav,,,,,0,96,96,96,,,z,2.580191290999892,Correct Rejection,0.5699929401491115,victor1,001,2025-11-13_13-47-52,
absent,0.2,SILENCE,NA,bab20.wav,redning_reversed.wav,oprør_reversed.wav,,,,,0,97,97,97,,,z,0.5073789999999008,Correct Rejection,0.5147601977493192,victor1,001,2025-11-13_13-47-52,
present,0.1,kujon_compressed.wav,kujon,bab9.wav,selvmord_reversed.wav,sikker_reversed.wav,,,,,0,98,98,98,,,m,0.41028979199995774,Hit,0.591488123332181,victor1,001,2025-11-13_13-47-52,
present,0.3,albue_compressed.wav,albue,bab13.wav,patent_reversed.wav,mave_reversed.wav,,,,,0,99,99,99,,,m,1.01788070900011,Hit,1.2161227798769647,victor1,001,2025-11-13_13-47-52,
absent,0.7,SILENCE,NA,bab5.wav,forfald_reversed.wav,slagtning_reversed.wav,,,,,0,100,100,100,,,z,1.4461158750000322,Correct Rejection,0.8680625698169981,victor1,001,2025-11-13_13-47-52,
absent,0.7,SILENCE,NA,bab14.wav,leder_reversed.wav,hånlig_reversed.wav,,,,,0,101,101,101,,,z,1.62661091699988,Correct Rejection,1.0880047468193266,victor1,001,2025-11-13_13-47-52,
absent,0.5,SILENCE,NA,bab20.wav,offer_reversed.wav,røver_reversed.wav,,,,,0,102,102,102,,,z,1.6277919579999889,Correct Rejection,1.0943101878758186,victor1,001,2025-11-13_13-47-52,
present,0.4,beundret_compressed.wav,beundret,bab13.wav,vandal_reversed.wav,plakat_reversed.wav,,,,,0,103,103,103,,,m,1.0152547909999612,Hit,1.463824265726306,victor1,001,2025-11-13_13-47-52,
present,0.5,fjollet_compressed.wav,fjollet,bab21.wav,museum_reversed.wav,selvmord_reversed.wav,,,,,0,104,104,104,,,m,0.35040858299998945,Hit,0.6125642342349424,victor1,001,2025-11-13_13-47-52,
absent,0.5,SILENCE,NA,bab13.wav,gidsel_reversed.wav,lækker_reversed.wav,,,,,0,105,105,105,,,z,1.412579457999982,Correct Rejection,1.4233167614235773,victor1,001,2025-11-13_13-47-52,
absent,0.2,SILENCE,NA,bab20.wav,hader_reversed.wav,varme_reversed.wav,,,,,0,106,106,106,,,z,3.4129681670001446,Correct Rejection,0.9692825457661283,victor1,001,2025-11-13_13-47-52,
absent,0.5,SILENCE,NA,bab15.wav,rådden_reversed.wav,taber_reversed.wav,,,,,0,107,107,107,,,z,22.953780167000104,Correct Rejection,0.9142943589818887,victor1,001,2025-11-13_13-47-52,
present,0.4,accept_compressed.wav,accept,bab14.wav,gave_reversed.wav,venlig_reversed.wav,,,,,0,108,108,108,,,m,0.6851500830000532,Hit,0.8894631043321106,victor1,001,2025-11-13_13-47-52,
present,0.2,avis_compressed.wav,avis,bab8.wav,humor_reversed.wav,trussel_reversed.wav,,,,,0,109,109,109,,,m,0.5028134589999809,Hit,0.8840421983808195,victor1,001,2025-11-13_13-47-52,
absent,0.3,SILENCE,NA,bab9.wav,gave_reversed.wav,blodig_reversed.wav,,,,,0,110,110,110,,,z,1.6989374160000352,Correct Rejection,0.7807265377399887,victor1,001,2025-11-13_13-47-52,
present,0.3,hader_compressed.wav,hader,bab20.wav,lækker_reversed.wav,glæde_reversed.wav,,,,,0,111,111,111,,,m,0.2236902499998905,Hit,0.7925453919706112,victor1,001,2025-11-13_13-47-52,
present,0.5,djævel_compressed.wav,djævel,bab13.wav,oprørt_reversed.wav,rabies_reversed.wav,,,,,0,112,112,112,,,z,1.661913750000167,Miss,1.1384049635971842,victor1,001,2025-11-13_13-47-52,
present,0.1,beskidt_compressed.wav,beskidt,bab8.wav,sygdom_reversed.wav,marked_reversed.wav,,,,,0,113,113,113,,,m,0.22780237500001022,Hit,0.9716117264890645,victor1,001,2025-11-13_13-47-52,
present,0.2,kysse_compressed.wav,kysse,bab14.wav,sindssyg_reversed.wav,bygning_reversed.wav,,,,,0,114,114,114,,,m,0.9045869579999817,Hit,0.7038348431399651,victor1,001,2025-11-13_13-47-52,
absent,0.1,SILENCE,NA,bab5.wav,festlig_reversed.wav,morder_reversed.wav,,,,,0,115,115,115,,,z,0.6125769159998526,Correct Rejection,1.171447722629869,victor1,001,2025-11-13_13-47-52,
absent,0.3,SILENCE,NA,bab15.wav,pude_reversed.wav,bifald_reversed.wav,,,,,0,116,116,116,,,z,3.0039709579998544,Correct Rejection,0.8558487052651942,victor1,001,2025-11-13_13-47-52,
present,0.3,glæde_compressed.wav,glæde,bab20.wav,trofæ_reversed.wav,rabies_reversed.wav,,,,,0,117,117,117,,,m,0.3545405419999952,Hit,1.0177652865841331,victor1,001,2025-11-13_13-47-52,
present,0.4,feber_compressed.wav,feber,bab10.wav,leder_reversed.wav,utro_reversed.wav,,,,,0,118,118,118,,,m,0.7558791670001028,Hit,1.1150185297088482,victor1,001,2025-11-13_13-47-52,
absent,0.3,SILENCE,NA,bab4.wav,fedme_reversed.wav,fase_reversed.wav,,,,,0,119,119,119,,,z,1.9254320830000324,Correct Rejection,1.2255839949658607,victor1,001,2025-11-13_13-47-52,
absent,0.6,SILENCE,NA,bab9.wav,kugle_reversed.wav,venlig_reversed.wav,,,,,0,120,120,120,,,z,0.7107216249999055,Correct Rejection,1.2617398570850558,victor1,001,2025-11-13_13-47-52,
present,0.6,kedel_compressed.wav,kedel,bab5.wav,himlen_reversed.wav,slave_reversed.wav,,,,,0,121,121,121,,,m,0.35814174999995885,Hit,1.3752971497407875,victor1,001,2025-11-13_13-47-52,
present,0.6,ønske_compressed.wav,ønske,bab5.wav,fase_reversed.wav,rigdom_reversed.wav,,,,,0,122,122,122,,,m,0.6185366249999333,Hit,0.826729672063757,victor1,001,2025-11-13_13-47-52,
present,0.3,bygning_compressed.wav,bygning,bab13.wav,sexet_reversed.wav,statue_reversed.wav,,,,,0,123,123,123,,,m,0.22159408399988934,Hit,0.584721829935443,victor1,001,2025-11-13_13-47-52,
present,0.2,feber_compressed.wav,feber,bab20.wav,sexet_reversed.wav,skønhed_reversed.wav,,,,,0,124,124,124,,,m,0.28230504099997233,Hit,1.0299321796496907,victor1,001,2025-11-13_13-47-52,
present,0.3,statue_compressed.wav,statue,bab14.wav,voldtægt_reversed.wav,poesi_reversed.wav,,,,,0,125,125,125,,,m,0.4444807919999221,Hit,1.0398325705913898,victor1,001,2025-11-13_13-47-52,
absent,0.3,SILENCE,NA,bab6.wav,pjece_reversed.wav,nonsens_reversed.wav,,,,,0,126,126,126,,,z,0.644113667000056,Correct Rejection,0.6369995070693178,victor1,001,2025-11-13_13-47-52,
absent,0.5,SILENCE,NA,bab10.wav,taber_reversed.wav,talent_reversed.wav,,,,,0,127,127,127,,,z,0.7219409589999941,Correct Rejection,0.5497818288036761,victor1,001,2025-11-13_13-47-52,
present,0.6,afskyr_compressed.wav,afskyr,bab4.wav,talent_reversed.wav,blomstre_reversed.wav,,,,,0,128,128,128,,,m,0.5510972500001117,Hit,0.9201755152747829,victor1,001,2025-11-13_13-47-52,
present,0.7,kage_compressed.wav,kage,bab20.wav,talent_reversed.wav,pervers_reversed.wav,,,,,0,129,129,129,,,m,0.987982749999901,Hit,1.3812534601431117,victor1,001,2025-11-13_13-47-52,
absent,0.6,SILENCE,NA,bab21.wav,skyldig_reversed.wav,vandal_reversed.wav,,,,,0,130,130,130,,,z,1.5459836249999626,Correct Rejection,0.8354915270794196,victor1,001,2025-11-13_13-47-52,
present,0.6,varme_compressed.wav,varme,bab14.wav,rigdom_reversed.wav,knude_reversed.wav,,,,,0,131,131,131,,,m,0.9933482079998157,Hit,1.0301852884066847,victor1,001,2025-11-13_13-47-52,
present,0.3,spænding_compressed.wav,spænding,bab10.wav,frygtsom_reversed.wav,maling_reversed.wav,,,,,0,132,132,132,,,m,0.9351499169999897,Hit,1.2503210113443077,victor1,001,2025-11-13_13-47-52,
present,0.4,ærlig_compressed.wav,ærlig,bab6.wav,kiste_reversed.wav,hage_reversed.wav,,,,,0,133,133,133,,,m,0.40412608299993735,Hit,1.461861276977006,victor1,001,2025-11-13_13-47-52,
absent,0.6,SILENCE,NA,bab10.wav,mester_reversed.wav,fiasko_reversed.wav,,,,,0,134,134,134,,,z,1.4158983329998591,Correct Rejection,0.8445022611985503,victor1,001,2025-11-13_13-47-52,
absent,0.3,SILENCE,NA,bab4.wav,luksus_reversed.wav,søsyg_reversed.wav,,,,,0,135,135,135,,,m,5.307259584000121,False Alarm,1.164134897015499,victor1,001,2025-11-13_13-47-52,
absent,0.6,SILENCE,NA,bab6.wav,himmel_reversed.wav,maling_reversed.wav,,,,,0,136,136,136,,,z,0.6156318339999416,Correct Rejection,0.9746355243362164,victor1,001,2025-11-13_13-47-52,
absent,0.6,SILENCE,NA,bab13.wav,patent_reversed.wav,brænde_reversed.wav,,,,,0,137,137,137,,,z,1.5382630839999365,Correct Rejection,0.6634833417020278,victor1,001,2025-11-13_13-47-52,
present,0.6,rådden_compressed.wav,rådden,bab9.wav,frihed_reversed.wav,tilfreds_reversed.wav,,,,,0,138,138,138,,,m,0.8938584999998511,Hit,1.0400365701580423,victor1,001,2025-11-13_13-47-52,
present,0.5,papir_compressed.wav,papir,bab10.wav,grusom_reversed.wav,traume_reversed.wav,,,,,0,139,139,139,,,m,0.7516448750000109,Hit,0.7379783519806085,victor1,001,2025-11-13_13-47-52,
absent,0.1,SILENCE,NA,bab6.wav,bifald_reversed.wav,feber_reversed.wav,,,,,0,140,140,140,,,z,0.5715534169999046,Correct Rejection,0.8244811822204702,victor1,001,2025-11-13_13-47-52,
absent,0.2,SILENCE,NA,bab6.wav,sejre_reversed.wav,fængsel_reversed.wav,,,,,0,141,141,141,,,z,1.3744675829998414,Correct Rejection,1.01434616270544,victor1,001,2025-11-13_13-47-52,
absent,0.4,SILENCE,NA,bab14.wav,morder_reversed.wav,bombe_reversed.wav,,,,,0,142,142,142,,,z,0.939234875000011,Correct Rejection,0.6282729309019591,victor1,001,2025-11-13_13-47-52,
absent,0.6,SILENCE,NA,bab10.wav,brutal_reversed.wav,grimme_reversed.wav,,,,,0,143,143,143,,,z,0.6388052500001322,Correct Rejection,0.7736454175313154,victor1,001,2025-11-13_13-47-52,
present,0.2,natur_compressed.wav,natur,bab21.wav,enhed_reversed.wav,djævel_reversed.wav,,,,,0,144,144,144,,,m,0.631132665999985,Hit,1.086553218544514,victor1,001,2025-11-13_13-47-52,
absent,0.7,SILENCE,NA,bab14.wav,fængsel_reversed.wav,ønske_reversed.wav,,,,,0,145,145,145,,,z,2.8018902080000316,Correct Rejection,1.4189902744451015,victor1,001,2025-11-13_13-47-52,
present,0.4,fedme_compressed.wav,fedme,bab10.wav,jubel_reversed.wav,pude_reversed.wav,,,,,0,146,146,146,,,m,1.2197864999998274,Hit,0.9697778171618764,victor1,001,2025-11-13_13-47-52,
absent,0.4,SILENCE,NA,bab9.wav,opstemt_reversed.wav,heldig_reversed.wav,,,,,0,147,147,147,,,z,1.593422708999924,Correct Rejection,0.7507526504895856,victor1,001,2025-11-13_13-47-52,
present,0.5,skønhed_compressed.wav,skønhed,bab10.wav,genert_reversed.wav,patent_reversed.wav,,,,,0,148,148,148,,,m,0.5158683340000607,Hit,1.394924421159058,victor1,001,2025-11-13_13-47-52,
absent,0.2,SILENCE,NA,bab4.wav,konkurs_reversed.wav,respekt_reversed.wav,,,,,0,149,149,149,,,z,1.0027645410000332,Correct Rejection,0.9688628632862238,victor1,001,2025-11-13_13-47-52,
present,0.6,putte_compressed.wav,putte,bab5.wav,tilfreds_reversed.wav,sæde_reversed.wav,,,,,0,150,150,150,,,m,0.3637197499999729,Hit,0.9684913811168474,victor1,001,2025-11-13_13-47-52,
absent,0.5,SILENCE,NA,bab9.wav,sejre_reversed.wav,bange_reversed.wav,,,,,0,151,151,151,,,z,0.7222505419999834,Correct Rejection,1.1595561261634528,victor1,001,2025-11-13_13-47-52,
present,0.4,himlen_compressed.wav,himlen,bab4.wav,beskidt_reversed.wav,sollys_reversed.wav,,,,,0,152,152,152,,,m,0.7816707080000924,Hit,0.5104028981746164,victor1,001,2025-11-13_13-47-52,
present,0.6,ensom_compressed.wav,ensom,bab8.wav,pjece_reversed.wav,himmel_reversed.wav,,,,,0,153,153,153,,,m,0.5053905830000076,Hit,0.623764770350493,victor1,001,2025-11-13_13-47-52,
absent,0.7,SILENCE,NA,bab6.wav,gade_reversed.wav,genstand_reversed.wav,,,,,0,154,154,154,,,z,1.371909125000002,Correct Rejection,0.9088650157753115,victor1,001,2025-11-13_13-47-52,
present,0.5,marked_compressed.wav,marked,bab8.wav,gidsel_reversed.wav,humor_reversed.wav,,,,,0,155,155,155,,,m,0.5283467910001036,Hit,1.2733426527415492,victor1,001,2025-11-13_13-47-52,
present,0.2,kage_compressed.wav,kage,bab4.wav,gaffel_reversed.wav,spænding_reversed.wav,,,,,0,156,156,156,,,m,0.6092996250001761,Hit,0.8724781709799669,victor1,001,2025-11-13_13-47-52,
present,0.2,fase_compressed.wav,fase,bab15.wav,knude_reversed.wav,hage_reversed.wav,,,,,0,157,157,157,,,m,1.2584319169998253,Hit,1.146624064824483,victor1,001,2025-11-13_13-47-52,
present,0.6,enhed_compressed.wav,enhed,bab13.wav,selvmord_reversed.wav,djævel_reversed.wav,,,,,0,158,158,158,,,m,1.5342192089999571,Hit,0.5228209408457173,victor1,001,2025-11-13_13-47-52,
present,0.3,vinde_compressed.wav,vinde,bab13.wav,putte_reversed.wav,traume_reversed.wav,,,,,0,159,159,159,,,m,0.6994394170001215,Hit,0.9433216226078647,victor1,001,2025-11-13_13-47-52,
present,0.1,diamant_compressed.wav,diamant,bab6.wav,talent_reversed.wav,væmmes_reversed.wav,,,,,0,160,160,160,,,m,0.2960296250000738,Hit,1.1273481407815558,victor1,001,2025-11-13_13-47-52,
absent,0.2,SILENCE,NA,bab10.wav,rabies_reversed.wav,diamant_reversed.wav,,,,,0,161,161,161,,,z,1.4174342910000632,Correct Rejection,1.4215983827354965,victor1,001,2025-11-13_13-47-52,
present,0.2,vandfald_compressed.wav,vandfald,bab9.wav,viden_reversed.wav,engel_reversed.wav,,,,,0,162,162,162,,,m,0.27076387500005694,Hit,1.2356215005848514,victor1,001,2025-11-13_13-47-52,
absent,0.6,SILENCE,NA,bab6.wav,blodig_reversed.wav,kærtegn_reversed.wav,,,,,0,163,163,163,,,z,2.6266559589998906,Correct Rejection,1.297752178821497,victor1,001,2025-11-13_13-47-52,
present,0.1,opstemt_compressed.wav,opstemt,bab6.wav,kontor_reversed.wav,violin_reversed.wav,,,,,0,164,164,164,,,m,0.3216260419999344,Hit,0.8308303937023026,victor1,001,2025-11-13_13-47-52,
absent,0.4,SILENCE,NA,bab14.wav,ugle_reversed.wav,engel_reversed.wav,,,,,0,165,165,165,,,z,1.3851638749999893,Correct Rejection,1.4249887692129244,victor1,001,2025-11-13_13-47-52,
absent,0.3,SILENCE,NA,bab5.wav,poesi_reversed.wav,mave_reversed.wav,,,,,0,166,166,166,,,z,0.40900812499990025,Correct Rejection,1.0504265618677673,victor1,001,2025-11-13_13-47-52,
present,0.5,syndig_compressed.wav,syndig,bab15.wav,ørken_reversed.wav,gaffel_reversed.wav,,,,,0,167,167,167,,,m,0.3147293750000699,Hit,0.5007570246611062,victor1,001,2025-11-13_13-47-52,
absent,0.7,SILENCE,NA,bab4.wav,vandfald_reversed.wav,skade_reversed.wav,,,,,0,168,168,168,,,z,1.2975827919999574,Correct Rejection,0.9260029137846081,victor1,001,2025-11-13_13-47-52,
present,0.1,dæmon_compressed.wav,dæmon,bab20.wav,ledning_reversed.wav,pervers_reversed.wav,,,,,0,169,169,169,,,m,0.8822961670000495,Hit,0.5935304300757023,victor1,001,2025-11-13_13-47-52,
present,0.4,lækker_compressed.wav,lækker,bab6.wav,hjerte_reversed.wav,succes_reversed.wav,,,,,0,170,170,170,,,m,0.2669993340000474,Hit,1.1595444966249648,victor1,001,2025-11-13_13-47-52,
present,0.4,djævel_compressed.wav,djævel,bab8.wav,knude_reversed.wav,blodig_reversed.wav,,,,,0,171,171,171,,,m,0.3250928750001094,Hit,1.1393567735123677,victor1,001,2025-11-13_13-47-52,
absent,0.4,SILENCE,NA,bab20.wav,banner_reversed.wav,nedbrud_reversed.wav,,,,,0,172,172,172,,,z,1.9500509160000092,Correct Rejection,0.8986574138803554,victor1,001,2025-11-13_13-47-52,
absent,0.6,SILENCE,NA,bab15.wav,bygning_reversed.wav,patent_reversed.wav,,,,,0,173,173,173,,,z,1.7581949579998764,Correct Rejection,1.201901015095227,victor1,001,2025-11-13_13-47-52,
absent,0.7,SILENCE,NA,bab21.wav,gave_reversed.wav,pervers_reversed.wav,,,,,0,174,174,174,,,z,1.940334041999904,Correct Rejection,1.33935711791419,victor1,001,2025-11-13_13-47-52,
present,0.5,viden_compressed.wav,viden,bab9.wav,dollar_reversed.wav,lækker_reversed.wav,,,,,0,175,175,175,,,m,1.1125995830000193,Hit,1.3459720875124508,victor1,001,2025-11-13_13-47-52,
present,0.7,minder_compressed.wav,minder,bab21.wav,traume_reversed.wav,talent_reversed.wav,,,,,0,176,176,176,,,m,0.57805104199997,Hit,1.3349496336523754,victor1,001,2025-11-13_13-47-52,
absent,0.2,SILENCE,NA,bab10.wav,rotte_reversed.wav,skuffe_reversed.wav,,,,,0,177,177,177,,,z,1.344461874999979,Correct Rejection,1.2560736861183526,victor1,001,2025-11-13_13-47-52,
absent,0.5,SILENCE,NA,bab8.wav,engel_reversed.wav,opstemt_reversed.wav,,,,,0,178,178,178,,,z,1.533491167000193,Correct Rejection,0.5056163414640271,victor1,001,2025-11-13_13-47-52,
absent,0.1,SILENCE,NA,bab13.wav,brutal_reversed.wav,røver_reversed.wav,,,,,0,179,179,179,,,z,1.4308800420001262,Correct Rejection,1.1727933649304836,victor1,001,2025-11-13_13-47-52,
present,0.7,nonne_compressed.wav,nonne,bab4.wav,blomstre_reversed.wav,borddug_reversed.wav,,,,,0,180,180,180,,,m,2.710123749999866,Hit,1.0246743134922456,victor1,001,2025-11-13_13-47-52,
present,0.5,himmel_compressed.wav,himmel,bab5.wav,glæde_reversed.wav,fedme_reversed.wav,,,,,0,181,181,181,,,m,0.8904902500000844,Hit,0.7847633990288138,victor1,001,2025-11-13_13-47-52,
absent,0.2,SILENCE,NA,bab4.wav,ønske_reversed.wav,kæle_reversed.wav,,,,,0,182,182,182,,,z,2.5238669170000776,Correct Rejection,0.9191938625711694,victor1,001,2025-11-13_13-47-52,
present,0.1,borddug_compressed.wav,borddug,bab8.wav,leder_reversed.wav,blodig_reversed.wav,,,,,0,183,183,183,,,m,0.6420322920000672,Hit,1.1626156186375205,victor1,001,2025-11-13_13-47-52,
present,0.3,blodig_compressed.wav,blodig,bab21.wav,himmel_reversed.wav,genstand_reversed.wav,,,,,0,184,184,184,,,m,0.8328408330000912,Hit,1.3161819044119552,victor1,001,2025-11-13_13-47-52,
absent,0.1,SILENCE,NA,bab15.wav,vandal_reversed.wav,illoyal_reversed.wav,,,,,0,185,185,185,,,z,2.631205915999999,Correct Rejection,1.0090111004526294,victor1,001,2025-11-13_13-47-52,
present,0.5,taxa_compressed.wav,taxa,bab5.wav,fiasko_reversed.wav,måned_reversed.wav,,,,,0,186,186,186,,,m,0.619103874999837,Hit,1.427731955143431,victor1,001,2025-11-13_13-47-52,
absent,0.7,SILENCE,NA,bab14.wav,brutal_reversed.wav,fedme_reversed.wav,,,,,0,187,187,187,,,z,4.300377166999624,Correct Rejection,1.3489102961648367,victor1,001,2025-11-13_13-47-52,
absent,0.4,SILENCE,NA,bab14.wav,sexet_reversed.wav,røver_reversed.wav,,,,,0,188,188,188,,,z,1.5644811659999505,Correct Rejection,0.7836544193221857,victor1,001,2025-11-13_13-47-52,
present,0.7,pervers_compressed.wav,pervers,bab9.wav,oprør_reversed.wav,skammel_reversed.wav,,,,,0,189,189,189,,,m,0.5720208339998862,Hit,0.6433761068940576,victor1,001,2025-11-13_13-47-52,
absent,0.7,SILENCE,NA,bab4.wav,tilfreds_reversed.wav,sexet_reversed.wav,,,,,0,190,190,190,,,z,1.096156333000181,Correct Rejection,0.748378099728429,victor1,001,2025-11-13_13-47-52,
absent,0.1,SILENCE,NA,bab20.wav,rigdom_reversed.wav,rigdom_reversed.wav,,,,,0,191,191,191,,,z,1.732626208000056,Correct Rejection,0.6736599532257255,victor1,001,2025-11-13_13-47-52,
absent,0.3,SILENCE,NA,bab8.wav,kage_reversed.wav,rædsel_reversed.wav,,,,,0,192,192,192,,,z,1.8667457919996195,Correct Rejection,1.4380361327706153,victor1,001,2025-11-13_13-47-52,
absent,0.3,SILENCE,NA,bab6.wav,måned_reversed.wav,syndig_reversed.wav,,,,,0,193,193,193,,,z,2.02324362499985,Correct Rejection,0.9787480019278958,victor1,001,2025-11-13_13-47-52,
present,0.3,måned_compressed.wav,måned,bab15.wav,genstand_reversed.wav,opstemt_reversed.wav,,,,,0,194,194,194,,,m,1.4679888329997084,Hit,1.3414826822103363,victor1,001,2025-11-13_13-47-52,
absent,0.6,SILENCE,NA,bab6.wav,cirkel_reversed.wav,konkurs_reversed.wav,,,,,0,195,195,195,,,z,2.1029416249998576,Correct Rejection,1.3422623982629225,victor1,001,2025-11-13_13-47-52,
absent,0.5,SILENCE,NA,bab4.wav,oprørt_reversed.wav,finger_reversed.wav,,,,,0,196,196,196,,,z,1.9830876249998255,Correct Rejection,0.8960023771058111,victor1,001,2025-11-13_13-47-52,
absent,0.4,SILENCE,NA,bab13.wav,ønske_reversed.wav,pude_reversed.wav,,,,,0,197,197,197,,,z,2.6643224999997983,Correct Rejection,0.7852357894613297,victor1,001,2025-11-13_13-47-52,
present,0.4,marked_compressed.wav,marked,bab10.wav,leder_reversed.wav,brænde_reversed.wav,,,,,0,198,198,198,,,m,0.2702269999999771,Hit,0.9478992594499298,victor1,001,2025-11-13_13-47-52,
present,0.3,lækker_compressed.wav,lækker,bab10.wav,sygdom_reversed.wav,maling_reversed.wav,,,,,0,199,199,199,,,m,0.2205042499999763,Hit,1.0438712246983632,victor1,001,2025-11-13_13-47-52,
present,0.4,leder_compressed.wav,leder,bab4.wav,røver_reversed.wav,slave_reversed.wav,,,,,0,200,200,200,,,m,0.1652460410000458,Hit,0.745942603505337,victor1,001,2025-11-13_13-47-52,
absent,0.3,SILENCE,NA,bab8.wav,røver_reversed.wav,redskab_reversed.wav,,,,,0,201,201,201,,,z,1.5018534999999247,Correct Rejection,1.0748673775982156,victor1,001,2025-11-13_13-47-52,
absent,0.2,SILENCE,NA,bab21.wav,affald_reversed.wav,lyse_reversed.wav,,,,,0,202,202,202,,,z,2.5944035420002365,Correct Rejection,1.1080647920036157,victor1,001,2025-11-13_13-47-52,
absent,0.2,SILENCE,NA,bab20.wav,blomstre_reversed.wav,latter_reversed.wav,,,,,0,203,203,203,,,z,0.6296230000002652,Correct Rejection,0.9692372866623997,victor1,001,2025-11-13_13-47-52,
absent,0.7,SILENCE,NA,bab14.wav,gade_reversed.wav,fjendtlig_reversed.wav,,,,,0,204,204,204,,,z,0.5645230000000083,Correct Rejection,0.953772562023627,victor1,001,2025-11-13_13-47-52,
absent,0.7,SILENCE,NA,bab8.wav,smerte_reversed.wav,respekt_reversed.wav,,,,,0,205,205,205,,,z,0.5439906659998996,Correct Rejection,1.3367990824980587,victor1,001,2025-11-13_13-47-52,
present,0.5,morder_compressed.wav,morder,bab4.wav,ferie_reversed.wav,forpint_reversed.wav,,,,,0,206,206,206,,,m,0.2053502909998315,Hit,1.1675130131891347,victor1,001,2025-11-13_13-47-52,
present,0.5,dæmpet_compressed.wav,dæmpet,bab6.wav,banner_reversed.wav,sygdom_reversed.wav,,,,,0,207,207,207,,,m,0.2144265839997388,Hit,0.9400596728202113,victor1,001,2025-11-13_13-47-52,
absent,0.1,SILENCE,NA,bab15.wav,koldbrand_reversed.wav,glæde_reversed.wav,,,,,0,208,208,208,,,z,1.6266997919997266,Correct Rejection,1.4415358955607465,victor1,001,2025-11-13_13-47-52,
absent,0.1,SILENCE,NA,bab14.wav,ugle_reversed.wav,kage_reversed.wav,,,,,0,209,209,209,,,z,1.3920631670002876,Correct Rejection,1.083696115825823,victor1,001,2025-11-13_13-47-52,
